[{"rt":20061,"stimulus":"audio/9b_natural_Arthur_wasnt_TIPSY.mp3","response":2,"test_part":"test","phrase":"9b_natural_Arthur_wasnt_TIPSY","trial_type":"audio-button-response","trial_index":2,"time_elapsed":31851,"internal_node_id":"0.0-2.0-0.0"},{"rt":52229,"stimulus":"audio/9b_natural_Arthur_wasnt_TIPSY.mp3","response":1,"test_part":"test","phrase":"9b_natural_Arthur_wasnt_TIPSY","trial_type":"audio-button-response","trial_index":3,"time_elapsed":84084,"internal_node_id":"0.0-2.0-1.0-0.0"},{"rt":10181,"stimulus":"audio/1a_natural_the_inbox_wasnt_full.mp3","response":2,"test_part":"test","phrase":"1a_natural_the_inbox_wasnt_full","trial_type":"audio-button-response","trial_index":5,"time_elapsed":96908,"internal_node_id":"0.0-2.0-0.1"},{"rt":4840,"stimulus":"audio/1a_natural_the_inbox_wasnt_full.mp3","response":0,"test_part":"test","phrase":"1a_natural_the_inbox_wasnt_full","trial_type":"audio-button-response","trial_index":6,"time_elapsed":101748,"internal_node_id":"0.0-2.0-1.1-0.1"},{"rt":6629,"stimulus":"audio/5b_demo_the_food_didnt_taste_GOOD.mp3","response":0,"test_part":"test","phrase":"5b_demo_the_food_didnt_taste_GOOD","trial_type":"audio-button-response","trial_index":8,"time_elapsed":110876,"internal_node_id":"0.0-2.0-0.2"},{"rt":4419,"stimulus":"audio/2b_demo_Peter_wont_eat_ANYTHING.mp3","response":0,"test_part":"test","phrase":"2b_demo_Peter_wont_eat_ANYTHING","trial_type":"audio-button-response","trial_index":10,"time_elapsed":117483,"internal_node_id":"0.0-2.0-0.3"},{"rt":3189,"stimulus":"audio/Db_demo_Mary_doesnt_LIKE_ice_cream.mp3","response":0,"test_part":"test","phrase":"Db_demo_Mary_doesnt_LIKE_ice_cream","trial_type":"audio-button-response","trial_index":12,"time_elapsed":123236,"internal_node_id":"0.0-2.0-0.4"},{"rt":7808,"stimulus":"audio/4a_natural_Thomas_didnt_see_Patrick.mp3","response":0,"test_part":"test","phrase":"4a_natural_Thomas_didnt_see_Patrick","trial_type":"audio-button-response","trial_index":14,"time_elapsed":133636,"internal_node_id":"0.0-2.0-0.5"},{"rt":5411,"stimulus":"audio/Ca_demo_Nick_doesnt_listen_to_anyone.mp3","response":0,"test_part":"test","phrase":"Ca_demo_Nick_doesnt_listen_to_anyone","trial_type":"audio-button-response","trial_index":16,"time_elapsed":141028,"internal_node_id":"0.0-2.0-0.6"},{"rt":3712,"stimulus":"audio/Eb_demo_We_didnt_get_ONE_Christmas_card.mp3","response":0,"test_part":"test","phrase":"Eb_demo_We_didnt_get_ONE_Christmas_card","trial_type":"audio-button-response","trial_index":18,"time_elapsed":146468,"internal_node_id":"0.0-2.0-0.7"},{"rt":4352,"stimulus":"audio/1a_demo_the_inbox_wasnt_full.mp3","response":0,"test_part":"test","phrase":"1a_demo_the_inbox_wasnt_full","trial_type":"audio-button-response","trial_index":20,"time_elapsed":152627,"internal_node_id":"0.0-2.0-0.8"},{"rt":6280,"stimulus":"audio/Ea_natural_We_didnt_get_one_Christmas_card.mp3","response":0,"test_part":"test","phrase":"Ea_natural_We_didnt_get_one_Christmas_card","trial_type":"audio-button-response","trial_index":22,"time_elapsed":160900,"internal_node_id":"0.0-2.0-0.9"},{"rt":3048,"stimulus":"audio/2a_natural_Peter_wont_eat_anything.mp3","response":0,"test_part":"test","phrase":"2a_natural_Peter_wont_eat_anything","trial_type":"audio-button-response","trial_index":24,"time_elapsed":166277,"internal_node_id":"0.0-2.0-0.10"},{"rt":2341,"stimulus":"audio/Da_demo_Mary_doesnt_like_ice_cream.mp3","response":0,"test_part":"test","phrase":"Da_demo_Mary_doesnt_like_ice_cream","trial_type":"audio-button-response","trial_index":26,"time_elapsed":169859,"internal_node_id":"0.0-2.0-0.11"},{"rt":2819,"stimulus":"audio/2b_natural_Peter_wont_eat_ANYTHING.mp3","response":0,"test_part":"test","phrase":"2b_natural_Peter_wont_eat_ANYTHING","trial_type":"audio-button-response","trial_index":28,"time_elapsed":174237,"internal_node_id":"0.0-2.0-0.12"},{"rt":2771,"stimulus":"audio/5a_demo_the_food_didnt_taste_good.mp3","response":0,"test_part":"test","phrase":"5a_demo_the_food_didnt_taste_good","trial_type":"audio-button-response","trial_index":30,"time_elapsed":178340,"internal_node_id":"0.0-2.0-0.13"},{"rt":4779,"stimulus":"audio/3a_demo_Susan_didnt_get_one_credit.mp3","response":0,"test_part":"test","phrase":"3a_demo_Susan_didnt_get_one_credit","trial_type":"audio-button-response","trial_index":32,"time_elapsed":184636,"internal_node_id":"0.0-2.0-0.14"},{"rt":4981,"stimulus":"audio/Ab_demo_Ken_didnt_feed_the_CAT.mp3","response":0,"test_part":"test","phrase":"Ab_demo_Ken_didnt_feed_the_CAT","trial_type":"audio-button-response","trial_index":34,"time_elapsed":191092,"internal_node_id":"0.0-2.0-0.15"},{"rt":3389,"stimulus":"audio/5a_natural_the_food_didnt_taste_good.mp3","response":0,"test_part":"test","phrase":"5a_natural_the_food_didnt_taste_good","trial_type":"audio-button-response","trial_index":36,"time_elapsed":196051,"internal_node_id":"0.0-2.0-0.16"},{"rt":3179,"stimulus":"audio/4b_demo_Thomas_didnt_see_PATRICK.mp3","response":0,"test_part":"test","phrase":"4b_demo_Thomas_didnt_see_PATRICK","trial_type":"audio-button-response","trial_index":38,"time_elapsed":200437,"internal_node_id":"0.0-2.0-0.17"},{"rt":2709,"stimulus":"audio/1b_demo_the_inbox_wasnt_FULL.mp3","response":0,"test_part":"test","phrase":"1b_demo_the_inbox_wasnt_FULL","trial_type":"audio-button-response","trial_index":40,"time_elapsed":204804,"internal_node_id":"0.0-2.0-0.18"},{"rt":2349,"stimulus":"audio/Db_natural_Mary_doesnt_LIKE_ice_cream.mp3","response":0,"test_part":"test","phrase":"Db_natural_Mary_doesnt_LIKE_ice_cream","trial_type":"audio-button-response","trial_index":42,"time_elapsed":208539,"internal_node_id":"0.0-2.0-0.19"},{"rt":2360,"stimulus":"audio/Ca_natural_Nick_doesnt_listen_to_anyone.mp3","response":0,"test_part":"test","phrase":"Ca_natural_Nick_doesnt_listen_to_anyone","trial_type":"audio-button-response","trial_index":44,"time_elapsed":212019,"internal_node_id":"0.0-2.0-0.20"},{"rt":2120,"stimulus":"audio/4b_natural_Thomas_didnt_see_PATRICK.mp3","response":0,"test_part":"test","phrase":"4b_natural_Thomas_didnt_see_PATRICK","trial_type":"audio-button-response","trial_index":46,"time_elapsed":215363,"internal_node_id":"0.0-2.0-0.21"},{"rt":2080,"stimulus":"audio/Ea_demo_We_didnt_get_one_Christmas_card.mp3","response":0,"test_part":"test","phrase":"Ea_demo_We_didnt_get_one_Christmas_card","trial_type":"audio-button-response","trial_index":48,"time_elapsed":218692,"internal_node_id":"0.0-2.0-0.22"},{"rt":2061,"stimulus":"audio/2a_demo_Peter_wont_eat_anything.mp3","response":0,"test_part":"test","phrase":"2a_demo_Peter_wont_eat_anything","trial_type":"audio-button-response","trial_index":50,"time_elapsed":221948,"internal_node_id":"0.0-2.0-0.23"},{"rt":3701,"stimulus":"audio/1b_natural_the_inbox_wasnt_FULL.mp3","response":0,"test_part":"test","phrase":"1b_natural_the_inbox_wasnt_FULL","trial_type":"audio-button-response","trial_index":52,"time_elapsed":226907,"internal_node_id":"0.0-2.0-0.24"},{"rt":2640,"stimulus":"audio/3a_natural_Susan_didnt_get_one_credit.mp3","response":0,"test_part":"test","phrase":"3a_natural_Susan_didnt_get_one_credit","trial_type":"audio-button-response","trial_index":54,"time_elapsed":230812,"internal_node_id":"0.0-2.0-0.25"},{"rt":1992,"stimulus":"audio/Cb_demo_Nick_doesnt_listen_to_ANYONE.mp3","response":0,"test_part":"test","phrase":"Cb_demo_Nick_doesnt_listen_to_ANYONE","trial_type":"audio-button-response","trial_index":56,"time_elapsed":234419,"internal_node_id":"0.0-2.0-0.26"},{"rt":2549,"stimulus":"audio/3b_natural_Susan_didnt_get_ONE_credit.mp3","response":0,"test_part":"test","phrase":"3b_natural_Susan_didnt_get_ONE_credit","trial_type":"audio-button-response","trial_index":58,"time_elapsed":238404,"internal_node_id":"0.0-2.0-0.27"},{"rt":2541,"stimulus":"audio/Aa_natural_Ken_didnt_feed_the_cat.mp3","response":0,"test_part":"test","phrase":"Aa_natural_Ken_didnt_feed_the_cat","trial_type":"audio-button-response","trial_index":60,"time_elapsed":242069,"internal_node_id":"0.0-2.0-0.28"},{"rt":2240,"stimulus":"audio/Da_natural_Mary_doesnt_like_ice_cream.mp3","response":0,"test_part":"test","phrase":"Da_natural_Mary_doesnt_like_ice_cream","trial_type":"audio-button-response","trial_index":62,"time_elapsed":245436,"internal_node_id":"0.0-2.0-0.29"},{"rt":2509,"stimulus":"audio/4a_demo_Thomas_didnt_see_Patrick.mp3","response":0,"test_part":"test","phrase":"4a_demo_Thomas_didnt_see_Patrick","trial_type":"audio-button-response","trial_index":64,"time_elapsed":249171,"internal_node_id":"0.0-2.0-0.30"},{"rt":2021,"stimulus":"audio/Ab_natural_Ken_didnt_feed_the_CAT.mp3","response":0,"test_part":"test","phrase":"Ab_natural_Ken_didnt_feed_the_CAT","trial_type":"audio-button-response","trial_index":66,"time_elapsed":252539,"internal_node_id":"0.0-2.0-0.31"},{"rt":1928,"stimulus":"audio/5b_natural_the_food_didnt_taste_GOOD.mp3","response":0,"test_part":"test","phrase":"5b_natural_the_food_didnt_taste_GOOD","trial_type":"audio-button-response","trial_index":68,"time_elapsed":255796,"internal_node_id":"0.0-2.0-0.32"},{"rt":1768,"stimulus":"audio/Cb_natural_Nick_doesnt_listen_to_ANYONE.mp3","response":0,"test_part":"test","phrase":"Cb_natural_Nick_doesnt_listen_to_ANYONE","trial_type":"audio-button-response","trial_index":70,"time_elapsed":258795,"internal_node_id":"0.0-2.0-0.33"},{"rt":5520,"stimulus":"audio/9a_natural_Arthur_wasnt_tipsy.mp3","response":2,"test_part":"test","phrase":"9a_natural_Arthur_wasnt_tipsy","trial_type":"audio-button-response","trial_index":72,"time_elapsed":265484,"internal_node_id":"0.0-2.0-0.34"},{"rt":3789,"stimulus":"audio/9a_natural_Arthur_wasnt_tipsy.mp3","response":0,"test_part":"test","phrase":"9a_natural_Arthur_wasnt_tipsy","trial_type":"audio-button-response","trial_index":73,"time_elapsed":269275,"internal_node_id":"0.0-2.0-1.34-0.34"},{"rt":2389,"stimulus":"audio/Eb_natural_We_didnt_get_ONE_Christmas_card.mp3","response":0,"test_part":"test","phrase":"Eb_natural_We_didnt_get_ONE_Christmas_card","trial_type":"audio-button-response","trial_index":75,"time_elapsed":273131,"internal_node_id":"0.0-2.0-0.35"},{"rt":2000,"stimulus":"audio/9b_demo_Arthur_wasnt_TIPSY.mp3","response":0,"test_part":"test","phrase":"9b_demo_Arthur_wasnt_TIPSY","trial_type":"audio-button-response","trial_index":77,"time_elapsed":281604,"internal_node_id":"0.0-2.0-0.36"},{"rt":1949,"stimulus":"audio/Aa_demo_Ken_didnt_feed_the_cat.mp3","response":0,"test_part":"test","phrase":"Aa_demo_Ken_didnt_feed_the_cat","trial_type":"audio-button-response","trial_index":79,"time_elapsed":285363,"internal_node_id":"0.0-2.0-0.37"},{"rt":1720,"stimulus":"audio/9a_demo_Arthur_wasnt_tipsy.mp3","response":0,"test_part":"test","phrase":"9a_demo_Arthur_wasnt_tipsy","trial_type":"audio-button-response","trial_index":81,"time_elapsed":288267,"internal_node_id":"0.0-2.0-0.38"},{"rt":2909,"stimulus":"audio/3b_demo_Susan_didnt_get_ONE_credit.mp3","response":0,"test_part":"test","phrase":"3b_demo_Susan_didnt_get_ONE_credit","trial_type":"audio-button-response","trial_index":83,"time_elapsed":292517,"internal_node_id":"0.0-2.0-0.39"}]