[{"rt":11000,"stimulus":"audio/Cb_natural_Nick_doesnt_listen_to_ANYONE.mp3","response":2,"test_part":"test","phrase":"Cb_natural_Nick_doesnt_listen_to_ANYONE","trial_type":"audio-button-response","trial_index":2,"time_elapsed":20941,"internal_node_id":"0.0-2.0-0.0"},{"rt":14149,"stimulus":"audio/Cb_natural_Nick_doesnt_listen_to_ANYONE.mp3","response":0,"test_part":"test","phrase":"Cb_natural_Nick_doesnt_listen_to_ANYONE","trial_type":"audio-button-response","trial_index":3,"time_elapsed":35089,"internal_node_id":"0.0-2.0-1.0-0.0"},{"rt":10640,"stimulus":"audio/2b_natural_Peter_wont_eat_ANYTHING.mp3","response":2,"test_part":"test","phrase":"2b_natural_Peter_wont_eat_ANYTHING","trial_type":"audio-button-response","trial_index":5,"time_elapsed":47860,"internal_node_id":"0.0-2.0-0.1"},{"rt":1989,"stimulus":"audio/2b_natural_Peter_wont_eat_ANYTHING.mp3","response":0,"test_part":"test","phrase":"2b_natural_Peter_wont_eat_ANYTHING","trial_type":"audio-button-response","trial_index":6,"time_elapsed":49850,"internal_node_id":"0.0-2.0-1.1-0.1"},{"rt":4701,"stimulus":"audio/5a_natural_the_food_didnt_taste_good.mp3","response":2,"test_part":"test","phrase":"5a_natural_the_food_didnt_taste_good","trial_type":"audio-button-response","trial_index":8,"time_elapsed":56396,"internal_node_id":"0.0-2.0-0.2"},{"rt":5979,"stimulus":"audio/5a_natural_the_food_didnt_taste_good.mp3","response":0,"test_part":"test","phrase":"5a_natural_the_food_didnt_taste_good","trial_type":"audio-button-response","trial_index":9,"time_elapsed":62381,"internal_node_id":"0.0-2.0-1.2-0.2"},{"rt":3389,"stimulus":"audio/Da_demo_Mary_doesnt_like_ice_cream.mp3","response":2,"test_part":"test","phrase":"Da_demo_Mary_doesnt_like_ice_cream","trial_type":"audio-button-response","trial_index":11,"time_elapsed":67301,"internal_node_id":"0.0-2.0-0.3"},{"rt":11669,"stimulus":"audio/Da_demo_Mary_doesnt_like_ice_cream.mp3","response":0,"test_part":"test","phrase":"Da_demo_Mary_doesnt_like_ice_cream","trial_type":"audio-button-response","trial_index":12,"time_elapsed":78969,"internal_node_id":"0.0-2.0-1.3-0.3"},{"rt":4899,"stimulus":"audio/5b_demo_the_food_didnt_taste_GOOD.mp3","response":2,"test_part":"test","phrase":"5b_demo_the_food_didnt_taste_GOOD","trial_type":"audio-button-response","trial_index":14,"time_elapsed":85461,"internal_node_id":"0.0-2.0-0.4"},{"rt":8661,"stimulus":"audio/5b_demo_the_food_didnt_taste_GOOD.mp3","response":0,"test_part":"test","phrase":"5b_demo_the_food_didnt_taste_GOOD","trial_type":"audio-button-response","trial_index":15,"time_elapsed":94117,"internal_node_id":"0.0-2.0-1.4-0.4"},{"rt":5128,"stimulus":"audio/Aa_natural_Ken_didnt_feed_the_cat.mp3","response":2,"test_part":"test","phrase":"Aa_natural_Ken_didnt_feed_the_cat","trial_type":"audio-button-response","trial_index":17,"time_elapsed":100805,"internal_node_id":"0.0-2.0-0.5"},{"rt":8741,"stimulus":"audio/Aa_natural_Ken_didnt_feed_the_cat.mp3","response":1,"test_part":"test","phrase":"Aa_natural_Ken_didnt_feed_the_cat","trial_type":"audio-button-response","trial_index":18,"time_elapsed":109550,"internal_node_id":"0.0-2.0-1.5-0.5"},{"rt":5851,"stimulus":"audio/9a_natural_Arthur_wasnt_tipsy.mp3","response":2,"test_part":"test","phrase":"9a_natural_Arthur_wasnt_tipsy","trial_type":"audio-button-response","trial_index":20,"time_elapsed":116777,"internal_node_id":"0.0-2.0-0.6"},{"rt":6040,"stimulus":"audio/9a_natural_Arthur_wasnt_tipsy.mp3","response":0,"test_part":"test","phrase":"9a_natural_Arthur_wasnt_tipsy","trial_type":"audio-button-response","trial_index":21,"time_elapsed":122821,"internal_node_id":"0.0-2.0-1.6-0.6"},{"rt":7080,"stimulus":"audio/1b_demo_the_inbox_wasnt_FULL.mp3","response":1,"test_part":"test","phrase":"1b_demo_the_inbox_wasnt_FULL","trial_type":"audio-button-response","trial_index":23,"time_elapsed":130938,"internal_node_id":"0.0-2.0-0.7"},{"rt":2189,"stimulus":"audio/2a_natural_Peter_wont_eat_anything.mp3","response":0,"test_part":"test","phrase":"2a_natural_Peter_wont_eat_anything","trial_type":"audio-button-response","trial_index":25,"time_elapsed":134485,"internal_node_id":"0.0-2.0-0.8"},{"rt":3141,"stimulus":"audio/1a_demo_the_inbox_wasnt_full.mp3","response":0,"test_part":"test","phrase":"1a_demo_the_inbox_wasnt_full","trial_type":"audio-button-response","trial_index":27,"time_elapsed":138517,"internal_node_id":"0.0-2.0-0.9"},{"rt":5272,"stimulus":"audio/9b_demo_Arthur_wasnt_TIPSY.mp3","response":0,"test_part":"test","phrase":"9b_demo_Arthur_wasnt_TIPSY","trial_type":"audio-button-response","trial_index":29,"time_elapsed":144681,"internal_node_id":"0.0-2.0-0.10"},{"rt":8269,"stimulus":"audio/3a_demo_Susan_didnt_get_one_credit.mp3","response":0,"test_part":"test","phrase":"3a_demo_Susan_didnt_get_one_credit","trial_type":"audio-button-response","trial_index":31,"time_elapsed":153985,"internal_node_id":"0.0-2.0-0.11"},{"rt":5061,"stimulus":"audio/5b_natural_the_food_didnt_taste_GOOD.mp3","response":0,"test_part":"test","phrase":"5b_natural_the_food_didnt_taste_GOOD","trial_type":"audio-button-response","trial_index":33,"time_elapsed":160161,"internal_node_id":"0.0-2.0-0.12"},{"rt":7461,"stimulus":"audio/2b_demo_Peter_wont_eat_ANYTHING.mp3","response":0,"test_part":"test","phrase":"2b_demo_Peter_wont_eat_ANYTHING","trial_type":"audio-button-response","trial_index":35,"time_elapsed":168625,"internal_node_id":"0.0-2.0-0.13"},{"rt":2992,"stimulus":"audio/Db_demo_Mary_doesnt_LIKE_ice_cream.mp3","response":1,"test_part":"test","phrase":"Db_demo_Mary_doesnt_LIKE_ice_cream","trial_type":"audio-button-response","trial_index":37,"time_elapsed":172717,"internal_node_id":"0.0-2.0-0.14"},{"rt":5341,"stimulus":"audio/4a_demo_Thomas_didnt_see_Patrick.mp3","response":0,"test_part":"test","phrase":"4a_demo_Thomas_didnt_see_Patrick","trial_type":"audio-button-response","trial_index":39,"time_elapsed":178825,"internal_node_id":"0.0-2.0-0.15"},{"rt":3219,"stimulus":"audio/Ab_natural_Ken_didnt_feed_the_CAT.mp3","response":0,"test_part":"test","phrase":"Ab_natural_Ken_didnt_feed_the_CAT","trial_type":"audio-button-response","trial_index":41,"time_elapsed":183129,"internal_node_id":"0.0-2.0-0.16"},{"rt":2251,"stimulus":"audio/Cb_demo_Nick_doesnt_listen_to_ANYONE.mp3","response":0,"test_part":"test","phrase":"Cb_demo_Nick_doesnt_listen_to_ANYONE","trial_type":"audio-button-response","trial_index":43,"time_elapsed":186198,"internal_node_id":"0.0-2.0-0.17"},{"rt":1240,"stimulus":"audio/Ab_demo_Ken_didnt_feed_the_CAT.mp3","response":0,"test_part":"test","phrase":"Ab_demo_Ken_didnt_feed_the_CAT","trial_type":"audio-button-response","trial_index":45,"time_elapsed":188145,"internal_node_id":"0.0-2.0-0.18"},{"rt":3741,"stimulus":"audio/Eb_natural_We_didnt_get_ONE_Christmas_card.mp3","response":1,"test_part":"test","phrase":"Eb_natural_We_didnt_get_ONE_Christmas_card","trial_type":"audio-button-response","trial_index":47,"time_elapsed":192633,"internal_node_id":"0.0-2.0-0.19"},{"rt":2419,"stimulus":"audio/Db_natural_Mary_doesnt_LIKE_ice_cream.mp3","response":0,"test_part":"test","phrase":"Db_natural_Mary_doesnt_LIKE_ice_cream","trial_type":"audio-button-response","trial_index":49,"time_elapsed":195813,"internal_node_id":"0.0-2.0-0.20"},{"rt":2491,"stimulus":"audio/3b_natural_Susan_didnt_get_ONE_credit.mp3","response":0,"test_part":"test","phrase":"3b_natural_Susan_didnt_get_ONE_credit","trial_type":"audio-button-response","trial_index":51,"time_elapsed":199104,"internal_node_id":"0.0-2.0-0.21"},{"rt":1941,"stimulus":"audio/1b_natural_the_inbox_wasnt_FULL.mp3","response":0,"test_part":"test","phrase":"1b_natural_the_inbox_wasnt_FULL","trial_type":"audio-button-response","trial_index":53,"time_elapsed":201761,"internal_node_id":"0.0-2.0-0.22"},{"rt":2331,"stimulus":"audio/3a_natural_Susan_didnt_get_one_credit.mp3","response":0,"test_part":"test","phrase":"3a_natural_Susan_didnt_get_one_credit","trial_type":"audio-button-response","trial_index":55,"time_elapsed":204909,"internal_node_id":"0.0-2.0-0.23"},{"rt":1739,"stimulus":"audio/1a_natural_the_inbox_wasnt_full.mp3","response":0,"test_part":"test","phrase":"1a_natural_the_inbox_wasnt_full","trial_type":"audio-button-response","trial_index":57,"time_elapsed":207349,"internal_node_id":"0.0-2.0-0.24"},{"rt":2840,"stimulus":"audio/4b_demo_Thomas_didnt_see_PATRICK.mp3","response":1,"test_part":"test","phrase":"4b_demo_Thomas_didnt_see_PATRICK","trial_type":"audio-button-response","trial_index":59,"time_elapsed":210846,"internal_node_id":"0.0-2.0-0.25"},{"rt":2379,"stimulus":"audio/Ea_natural_We_didnt_get_one_Christmas_card.mp3","response":0,"test_part":"test","phrase":"Ea_natural_We_didnt_get_one_Christmas_card","trial_type":"audio-button-response","trial_index":61,"time_elapsed":213937,"internal_node_id":"0.0-2.0-0.26"},{"rt":2141,"stimulus":"audio/Ca_demo_Nick_doesnt_listen_to_anyone.mp3","response":0,"test_part":"test","phrase":"Ca_demo_Nick_doesnt_listen_to_anyone","trial_type":"audio-button-response","trial_index":63,"time_elapsed":216877,"internal_node_id":"0.0-2.0-0.27"},{"rt":1891,"stimulus":"audio/4a_natural_Thomas_didnt_see_Patrick.mp3","response":0,"test_part":"test","phrase":"4a_natural_Thomas_didnt_see_Patrick","trial_type":"audio-button-response","trial_index":65,"time_elapsed":219553,"internal_node_id":"0.0-2.0-0.28"},{"rt":3560,"stimulus":"audio/Ea_demo_We_didnt_get_one_Christmas_card.mp3","response":0,"test_part":"test","phrase":"Ea_demo_We_didnt_get_one_Christmas_card","trial_type":"audio-button-response","trial_index":67,"time_elapsed":223969,"internal_node_id":"0.0-2.0-0.29"},{"rt":2800,"stimulus":"audio/3b_demo_Susan_didnt_get_ONE_credit.mp3","response":1,"test_part":"test","phrase":"3b_demo_Susan_didnt_get_ONE_credit","trial_type":"audio-button-response","trial_index":69,"time_elapsed":227881,"internal_node_id":"0.0-2.0-0.30"},{"rt":2451,"stimulus":"audio/9a_demo_Arthur_wasnt_tipsy.mp3","response":0,"test_part":"test","phrase":"9a_demo_Arthur_wasnt_tipsy","trial_type":"audio-button-response","trial_index":71,"time_elapsed":231150,"internal_node_id":"0.0-2.0-0.31"},{"rt":1632,"stimulus":"audio/2a_demo_Peter_wont_eat_anything.mp3","response":0,"test_part":"test","phrase":"2a_demo_Peter_wont_eat_anything","trial_type":"audio-button-response","trial_index":73,"time_elapsed":233561,"internal_node_id":"0.0-2.0-0.32"},{"rt":2280,"stimulus":"audio/9b_natural_Arthur_wasnt_TIPSY.mp3","response":1,"test_part":"test","phrase":"9b_natural_Arthur_wasnt_TIPSY","trial_type":"audio-button-response","trial_index":75,"time_elapsed":236709,"internal_node_id":"0.0-2.0-0.33"},{"rt":2429,"stimulus":"audio/Da_natural_Mary_doesnt_like_ice_cream.mp3","response":0,"test_part":"test","phrase":"Da_natural_Mary_doesnt_like_ice_cream","trial_type":"audio-button-response","trial_index":77,"time_elapsed":240605,"internal_node_id":"0.0-2.0-0.34"},{"rt":2749,"stimulus":"audio/Eb_demo_We_didnt_get_ONE_Christmas_card.mp3","response":1,"test_part":"test","phrase":"Eb_demo_We_didnt_get_ONE_Christmas_card","trial_type":"audio-button-response","trial_index":79,"time_elapsed":244530,"internal_node_id":"0.0-2.0-0.35"},{"rt":2208,"stimulus":"audio/5a_demo_the_food_didnt_taste_good.mp3","response":0,"test_part":"test","phrase":"5a_demo_the_food_didnt_taste_good","trial_type":"audio-button-response","trial_index":81,"time_elapsed":247725,"internal_node_id":"0.0-2.0-0.36"},{"rt":2709,"stimulus":"audio/Aa_demo_Ken_didnt_feed_the_cat.mp3","response":0,"test_part":"test","phrase":"Aa_demo_Ken_didnt_feed_the_cat","trial_type":"audio-button-response","trial_index":83,"time_elapsed":251350,"internal_node_id":"0.0-2.0-0.37"},{"rt":1971,"stimulus":"audio/Ca_natural_Nick_doesnt_listen_to_anyone.mp3","response":0,"test_part":"test","phrase":"Ca_natural_Nick_doesnt_listen_to_anyone","trial_type":"audio-button-response","trial_index":85,"time_elapsed":254137,"internal_node_id":"0.0-2.0-0.38"},{"rt":2448,"stimulus":"audio/4b_natural_Thomas_didnt_see_PATRICK.mp3","response":1,"test_part":"test","phrase":"4b_natural_Thomas_didnt_see_PATRICK","trial_type":"audio-button-response","trial_index":87,"time_elapsed":257565,"internal_node_id":"0.0-2.0-0.39"}]