[{"rt":8659,"stimulus":"audio/4b_natural_Thomas_didnt_see_PATRICK.mp3","response":2,"test_part":"test","phrase":"4b_natural_Thomas_didnt_see_PATRICK","trial_type":"audio-button-response","trial_index":2,"time_elapsed":19452,"internal_node_id":"0.0-2.0-0.0"},{"rt":16520,"stimulus":"audio/4b_natural_Thomas_didnt_see_PATRICK.mp3","response":1,"test_part":"test","phrase":"4b_natural_Thomas_didnt_see_PATRICK","trial_type":"audio-button-response","trial_index":3,"time_elapsed":35975,"internal_node_id":"0.0-2.0-1.0-0.0"},{"rt":9032,"stimulus":"audio/1a_demo_the_inbox_wasnt_full.mp3","response":2,"test_part":"test","phrase":"1a_demo_the_inbox_wasnt_full","trial_type":"audio-button-response","trial_index":5,"time_elapsed":47159,"internal_node_id":"0.0-2.0-0.1"},{"rt":7139,"stimulus":"audio/1a_demo_the_inbox_wasnt_full.mp3","response":1,"test_part":"test","phrase":"1a_demo_the_inbox_wasnt_full","trial_type":"audio-button-response","trial_index":6,"time_elapsed":54300,"internal_node_id":"0.0-2.0-1.1-0.1"},{"rt":11360,"stimulus":"audio/Cb_natural_Nick_doesnt_listen_to_ANYONE.mp3","response":0,"test_part":"test","phrase":"Cb_natural_Nick_doesnt_listen_to_ANYONE","trial_type":"audio-button-response","trial_index":8,"time_elapsed":67755,"internal_node_id":"0.0-2.0-0.2"},{"rt":5680,"stimulus":"audio/3b_demo_Susan_didnt_get_ONE_credit.mp3","response":2,"test_part":"test","phrase":"3b_demo_Susan_didnt_get_ONE_credit","trial_type":"audio-button-response","trial_index":10,"time_elapsed":75017,"internal_node_id":"0.0-2.0-0.3"},{"rt":3520,"stimulus":"audio/3b_demo_Susan_didnt_get_ONE_credit.mp3","response":0,"test_part":"test","phrase":"3b_demo_Susan_didnt_get_ONE_credit","trial_type":"audio-button-response","trial_index":11,"time_elapsed":78537,"internal_node_id":"0.0-2.0-1.3-0.3"},{"rt":3589,"stimulus":"audio/1a_natural_the_inbox_wasnt_full.mp3","response":0,"test_part":"test","phrase":"1a_natural_the_inbox_wasnt_full","trial_type":"audio-button-response","trial_index":13,"time_elapsed":83661,"internal_node_id":"0.0-2.0-0.4"},{"rt":8971,"stimulus":"audio/4b_demo_Thomas_didnt_see_PATRICK.mp3","response":1,"test_part":"test","phrase":"4b_demo_Thomas_didnt_see_PATRICK","trial_type":"audio-button-response","trial_index":15,"time_elapsed":94582,"internal_node_id":"0.0-2.0-0.5"},{"rt":8440,"stimulus":"audio/Db_demo_Mary_doesnt_LIKE_ice_cream.mp3","response":0,"test_part":"test","phrase":"Db_demo_Mary_doesnt_LIKE_ice_cream","trial_type":"audio-button-response","trial_index":17,"time_elapsed":104870,"internal_node_id":"0.0-2.0-0.6"},{"rt":11688,"stimulus":"audio/Ab_demo_Ken_didnt_feed_the_CAT.mp3","response":1,"test_part":"test","phrase":"Ab_demo_Ken_didnt_feed_the_CAT","trial_type":"audio-button-response","trial_index":19,"time_elapsed":117890,"internal_node_id":"0.0-2.0-0.7"},{"rt":6581,"stimulus":"audio/5b_natural_the_food_didnt_taste_GOOD.mp3","response":0,"test_part":"test","phrase":"5b_natural_the_food_didnt_taste_GOOD","trial_type":"audio-button-response","trial_index":21,"time_elapsed":126264,"internal_node_id":"0.0-2.0-0.8"},{"rt":6371,"stimulus":"audio/2b_demo_Peter_wont_eat_ANYTHING.mp3","response":1,"test_part":"test","phrase":"2b_demo_Peter_wont_eat_ANYTHING","trial_type":"audio-button-response","trial_index":23,"time_elapsed":133994,"internal_node_id":"0.0-2.0-0.9"},{"rt":2720,"stimulus":"audio/5a_natural_the_food_didnt_taste_good.mp3","response":0,"test_part":"test","phrase":"5a_natural_the_food_didnt_taste_good","trial_type":"audio-button-response","trial_index":25,"time_elapsed":137888,"internal_node_id":"0.0-2.0-0.10"},{"rt":2509,"stimulus":"audio/Aa_natural_Ken_didnt_feed_the_cat.mp3","response":0,"test_part":"test","phrase":"Aa_natural_Ken_didnt_feed_the_cat","trial_type":"audio-button-response","trial_index":27,"time_elapsed":141928,"internal_node_id":"0.0-2.0-0.11"},{"rt":5789,"stimulus":"audio/2a_demo_Peter_wont_eat_anything.mp3","response":0,"test_part":"test","phrase":"2a_demo_Peter_wont_eat_anything","trial_type":"audio-button-response","trial_index":29,"time_elapsed":148668,"internal_node_id":"0.0-2.0-0.12"},{"rt":3789,"stimulus":"audio/5a_demo_the_food_didnt_taste_good.mp3","response":0,"test_part":"test","phrase":"5a_demo_the_food_didnt_taste_good","trial_type":"audio-button-response","trial_index":31,"time_elapsed":153574,"internal_node_id":"0.0-2.0-0.13"},{"rt":4941,"stimulus":"audio/9a_natural_Arthur_wasnt_tipsy.mp3","response":0,"test_part":"test","phrase":"9a_natural_Arthur_wasnt_tipsy","trial_type":"audio-button-response","trial_index":33,"time_elapsed":159707,"internal_node_id":"0.0-2.0-0.14"},{"rt":6451,"stimulus":"audio/Ea_natural_We_didnt_get_one_Christmas_card.mp3","response":0,"test_part":"test","phrase":"Ea_natural_We_didnt_get_one_Christmas_card","trial_type":"audio-button-response","trial_index":35,"time_elapsed":167393,"internal_node_id":"0.0-2.0-0.15"},{"rt":5800,"stimulus":"audio/9b_natural_Arthur_wasnt_TIPSY.mp3","response":0,"test_part":"test","phrase":"9b_natural_Arthur_wasnt_TIPSY","trial_type":"audio-button-response","trial_index":37,"time_elapsed":174611,"internal_node_id":"0.0-2.0-0.16"},{"rt":4779,"stimulus":"audio/Eb_natural_We_didnt_get_ONE_Christmas_card.mp3","response":0,"test_part":"test","phrase":"Eb_natural_We_didnt_get_ONE_Christmas_card","trial_type":"audio-button-response","trial_index":39,"time_elapsed":181097,"internal_node_id":"0.0-2.0-0.17"},{"rt":8272,"stimulus":"audio/5b_demo_the_food_didnt_taste_GOOD.mp3","response":1,"test_part":"test","phrase":"5b_demo_the_food_didnt_taste_GOOD","trial_type":"audio-button-response","trial_index":41,"time_elapsed":190761,"internal_node_id":"0.0-2.0-0.18"},{"rt":4549,"stimulus":"audio/3a_demo_Susan_didnt_get_one_credit.mp3","response":1,"test_part":"test","phrase":"3a_demo_Susan_didnt_get_one_credit","trial_type":"audio-button-response","trial_index":43,"time_elapsed":197297,"internal_node_id":"0.0-2.0-0.19"},{"rt":5920,"stimulus":"audio/Ca_demo_Nick_doesnt_listen_to_anyone.mp3","response":1,"test_part":"test","phrase":"Ca_demo_Nick_doesnt_listen_to_anyone","trial_type":"audio-button-response","trial_index":45,"time_elapsed":204301,"internal_node_id":"0.0-2.0-0.20"},{"rt":3379,"stimulus":"audio/Aa_demo_Ken_didnt_feed_the_cat.mp3","response":1,"test_part":"test","phrase":"Aa_demo_Ken_didnt_feed_the_cat","trial_type":"audio-button-response","trial_index":47,"time_elapsed":208970,"internal_node_id":"0.0-2.0-0.21"},{"rt":3160,"stimulus":"audio/Da_demo_Mary_doesnt_like_ice_cream.mp3","response":0,"test_part":"test","phrase":"Da_demo_Mary_doesnt_like_ice_cream","trial_type":"audio-button-response","trial_index":49,"time_elapsed":213097,"internal_node_id":"0.0-2.0-0.22"},{"rt":10429,"stimulus":"audio/9a_demo_Arthur_wasnt_tipsy.mp3","response":1,"test_part":"test","phrase":"9a_demo_Arthur_wasnt_tipsy","trial_type":"audio-button-response","trial_index":51,"time_elapsed":224495,"internal_node_id":"0.0-2.0-0.23"},{"rt":4600,"stimulus":"audio/Da_natural_Mary_doesnt_like_ice_cream.mp3","response":0,"test_part":"test","phrase":"Da_natural_Mary_doesnt_like_ice_cream","trial_type":"audio-button-response","trial_index":53,"time_elapsed":230299,"internal_node_id":"0.0-2.0-0.24"},{"rt":2688,"stimulus":"audio/4a_demo_Thomas_didnt_see_Patrick.mp3","response":0,"test_part":"test","phrase":"4a_demo_Thomas_didnt_see_Patrick","trial_type":"audio-button-response","trial_index":55,"time_elapsed":234524,"internal_node_id":"0.0-2.0-0.25"},{"rt":4501,"stimulus":"audio/2a_natural_Peter_wont_eat_anything.mp3","response":1,"test_part":"test","phrase":"2a_natural_Peter_wont_eat_anything","trial_type":"audio-button-response","trial_index":57,"time_elapsed":239912,"internal_node_id":"0.0-2.0-0.26"},{"rt":2989,"stimulus":"audio/3b_natural_Susan_didnt_get_ONE_credit.mp3","response":0,"test_part":"test","phrase":"3b_natural_Susan_didnt_get_ONE_credit","trial_type":"audio-button-response","trial_index":59,"time_elapsed":243923,"internal_node_id":"0.0-2.0-0.27"},{"rt":2701,"stimulus":"audio/Cb_demo_Nick_doesnt_listen_to_ANYONE.mp3","response":0,"test_part":"test","phrase":"Cb_demo_Nick_doesnt_listen_to_ANYONE","trial_type":"audio-button-response","trial_index":61,"time_elapsed":248869,"internal_node_id":"0.0-2.0-0.28"},{"rt":3520,"stimulus":"audio/Db_natural_Mary_doesnt_LIKE_ice_cream.mp3","response":1,"test_part":"test","phrase":"Db_natural_Mary_doesnt_LIKE_ice_cream","trial_type":"audio-button-response","trial_index":63,"time_elapsed":253557,"internal_node_id":"0.0-2.0-0.29"},{"rt":3120,"stimulus":"audio/4a_natural_Thomas_didnt_see_Patrick.mp3","response":1,"test_part":"test","phrase":"4a_natural_Thomas_didnt_see_Patrick","trial_type":"audio-button-response","trial_index":65,"time_elapsed":257706,"internal_node_id":"0.0-2.0-0.30"},{"rt":2491,"stimulus":"audio/3a_natural_Susan_didnt_get_one_credit.mp3","response":0,"test_part":"test","phrase":"3a_natural_Susan_didnt_get_one_credit","trial_type":"audio-button-response","trial_index":67,"time_elapsed":261213,"internal_node_id":"0.0-2.0-0.31"},{"rt":8421,"stimulus":"audio/1b_demo_the_inbox_wasnt_FULL.mp3","response":1,"test_part":"test","phrase":"1b_demo_the_inbox_wasnt_FULL","trial_type":"audio-button-response","trial_index":69,"time_elapsed":270548,"internal_node_id":"0.0-2.0-0.32"},{"rt":1645,"stimulus":"audio/2b_natural_Peter_wont_eat_ANYTHING.mp3","response":1,"test_part":"test","phrase":"2b_natural_Peter_wont_eat_ANYTHING","trial_type":"audio-button-response","trial_index":71,"time_elapsed":273141,"internal_node_id":"0.0-2.0-0.33"},{"rt":2819,"stimulus":"audio/1b_natural_the_inbox_wasnt_FULL.mp3","response":0,"test_part":"test","phrase":"1b_natural_the_inbox_wasnt_FULL","trial_type":"audio-button-response","trial_index":73,"time_elapsed":277202,"internal_node_id":"0.0-2.0-0.34"},{"rt":2691,"stimulus":"audio/Ea_demo_We_didnt_get_one_Christmas_card.mp3","response":1,"test_part":"test","phrase":"Ea_demo_We_didnt_get_one_Christmas_card","trial_type":"audio-button-response","trial_index":75,"time_elapsed":281119,"internal_node_id":"0.0-2.0-0.35"},{"rt":4688,"stimulus":"audio/Ab_natural_Ken_didnt_feed_the_CAT.mp3","response":1,"test_part":"test","phrase":"Ab_natural_Ken_didnt_feed_the_CAT","trial_type":"audio-button-response","trial_index":77,"time_elapsed":286923,"internal_node_id":"0.0-2.0-0.36"},{"rt":2171,"stimulus":"audio/Eb_demo_We_didnt_get_ONE_Christmas_card.mp3","response":1,"test_part":"test","phrase":"Eb_demo_We_didnt_get_ONE_Christmas_card","trial_type":"audio-button-response","trial_index":79,"time_elapsed":290703,"internal_node_id":"0.0-2.0-0.37"},{"rt":2771,"stimulus":"audio/Ca_natural_Nick_doesnt_listen_to_anyone.mp3","response":0,"test_part":"test","phrase":"Ca_natural_Nick_doesnt_listen_to_anyone","trial_type":"audio-button-response","trial_index":81,"time_elapsed":294426,"internal_node_id":"0.0-2.0-0.38"},{"rt":6360,"stimulus":"audio/9b_demo_Arthur_wasnt_TIPSY.mp3","response":1,"test_part":"test","phrase":"9b_demo_Arthur_wasnt_TIPSY","trial_type":"audio-button-response","trial_index":83,"time_elapsed":301721,"internal_node_id":"0.0-2.0-0.39"}]