[{"rt":6229,"stimulus":"audio/5b_natural_the_food_didnt_taste_GOOD.mp3","response":2,"test_part":"test","phrase":"5b_natural_the_food_didnt_taste_GOOD","trial_type":"audio-button-response","trial_index":2,"time_elapsed":12503,"internal_node_id":"0.0-2.0-0.0"},{"rt":3192,"stimulus":"audio/5b_natural_the_food_didnt_taste_GOOD.mp3","response":0,"test_part":"test","phrase":"5b_natural_the_food_didnt_taste_GOOD","trial_type":"audio-button-response","trial_index":3,"time_elapsed":15692,"internal_node_id":"0.0-2.0-1.0-0.0"},{"rt":2960,"stimulus":"audio/1a_demo_the_inbox_wasnt_full.mp3","response":2,"test_part":"test","phrase":"1a_demo_the_inbox_wasnt_full","trial_type":"audio-button-response","trial_index":5,"time_elapsed":19544,"internal_node_id":"0.0-2.0-0.1"},{"rt":7981,"stimulus":"audio/1a_demo_the_inbox_wasnt_full.mp3","response":0,"test_part":"test","phrase":"1a_demo_the_inbox_wasnt_full","trial_type":"audio-button-response","trial_index":6,"time_elapsed":27524,"internal_node_id":"0.0-2.0-1.1-0.1"},{"rt":3571,"stimulus":"audio/Ea_demo_We_didnt_get_one_Christmas_card.mp3","response":1,"test_part":"test","phrase":"Ea_demo_We_didnt_get_one_Christmas_card","trial_type":"audio-button-response","trial_index":8,"time_elapsed":33754,"internal_node_id":"0.0-2.0-0.2"},{"rt":4091,"stimulus":"audio/1b_natural_the_inbox_wasnt_FULL.mp3","response":1,"test_part":"test","phrase":"1b_natural_the_inbox_wasnt_FULL","trial_type":"audio-button-response","trial_index":10,"time_elapsed":39244,"internal_node_id":"0.0-2.0-0.3"},{"rt":4181,"stimulus":"audio/9b_natural_Arthur_wasnt_TIPSY.mp3","response":2,"test_part":"test","phrase":"9b_natural_Arthur_wasnt_TIPSY","trial_type":"audio-button-response","trial_index":12,"time_elapsed":47139,"internal_node_id":"0.0-2.0-0.4"},{"rt":2581,"stimulus":"audio/9b_natural_Arthur_wasnt_TIPSY.mp3","response":0,"test_part":"test","phrase":"9b_natural_Arthur_wasnt_TIPSY","trial_type":"audio-button-response","trial_index":13,"time_elapsed":49729,"internal_node_id":"0.0-2.0-1.4-0.4"},{"rt":3051,"stimulus":"audio/Db_demo_Mary_doesnt_LIKE_ice_cream.mp3","response":0,"test_part":"test","phrase":"Db_demo_Mary_doesnt_LIKE_ice_cream","trial_type":"audio-button-response","trial_index":15,"time_elapsed":53895,"internal_node_id":"0.0-2.0-0.5"},{"rt":3469,"stimulus":"audio/Aa_natural_Ken_didnt_feed_the_cat.mp3","response":0,"test_part":"test","phrase":"Aa_natural_Ken_didnt_feed_the_cat","trial_type":"audio-button-response","trial_index":17,"time_elapsed":59503,"internal_node_id":"0.0-2.0-0.6"},{"rt":4120,"stimulus":"audio/1b_demo_the_inbox_wasnt_FULL.mp3","response":1,"test_part":"test","phrase":"1b_demo_the_inbox_wasnt_FULL","trial_type":"audio-button-response","trial_index":19,"time_elapsed":65032,"internal_node_id":"0.0-2.0-0.7"},{"rt":7960,"stimulus":"audio/Cb_demo_Nick_doesnt_listen_to_ANYONE.mp3","response":1,"test_part":"test","phrase":"Cb_demo_Nick_doesnt_listen_to_ANYONE","trial_type":"audio-button-response","trial_index":21,"time_elapsed":74512,"internal_node_id":"0.0-2.0-0.8"},{"rt":2989,"stimulus":"audio/Ab_demo_Ken_didnt_feed_the_CAT.mp3","response":1,"test_part":"test","phrase":"Ab_demo_Ken_didnt_feed_the_CAT","trial_type":"audio-button-response","trial_index":23,"time_elapsed":78727,"internal_node_id":"0.0-2.0-0.9"},{"rt":2429,"stimulus":"audio/Eb_natural_We_didnt_get_ONE_Christmas_card.mp3","response":0,"test_part":"test","phrase":"Eb_natural_We_didnt_get_ONE_Christmas_card","trial_type":"audio-button-response","trial_index":25,"time_elapsed":82207,"internal_node_id":"0.0-2.0-0.10"},{"rt":3600,"stimulus":"audio/3a_demo_Susan_didnt_get_one_credit.mp3","response":0,"test_part":"test","phrase":"3a_demo_Susan_didnt_get_one_credit","trial_type":"audio-button-response","trial_index":27,"time_elapsed":86755,"internal_node_id":"0.0-2.0-0.11"},{"rt":2419,"stimulus":"audio/2b_natural_Peter_wont_eat_ANYTHING.mp3","response":0,"test_part":"test","phrase":"2b_natural_Peter_wont_eat_ANYTHING","trial_type":"audio-button-response","trial_index":29,"time_elapsed":90397,"internal_node_id":"0.0-2.0-0.12"},{"rt":2400,"stimulus":"audio/Cb_natural_Nick_doesnt_listen_to_ANYONE.mp3","response":0,"test_part":"test","phrase":"Cb_natural_Nick_doesnt_listen_to_ANYONE","trial_type":"audio-button-response","trial_index":31,"time_elapsed":93634,"internal_node_id":"0.0-2.0-0.13"},{"rt":1960,"stimulus":"audio/2a_demo_Peter_wont_eat_anything.mp3","response":1,"test_part":"test","phrase":"2a_demo_Peter_wont_eat_anything","trial_type":"audio-button-response","trial_index":33,"time_elapsed":96406,"internal_node_id":"0.0-2.0-0.14"},{"rt":2941,"stimulus":"audio/Eb_demo_We_didnt_get_ONE_Christmas_card.mp3","response":1,"test_part":"test","phrase":"Eb_demo_We_didnt_get_ONE_Christmas_card","trial_type":"audio-button-response","trial_index":35,"time_elapsed":100418,"internal_node_id":"0.0-2.0-0.15"},{"rt":3048,"stimulus":"audio/2b_demo_Peter_wont_eat_ANYTHING.mp3","response":0,"test_part":"test","phrase":"2b_demo_Peter_wont_eat_ANYTHING","trial_type":"audio-button-response","trial_index":37,"time_elapsed":104267,"internal_node_id":"0.0-2.0-0.16"},{"rt":2768,"stimulus":"audio/Ca_natural_Nick_doesnt_listen_to_anyone.mp3","response":1,"test_part":"test","phrase":"Ca_natural_Nick_doesnt_listen_to_anyone","trial_type":"audio-button-response","trial_index":39,"time_elapsed":108028,"internal_node_id":"0.0-2.0-0.17"},{"rt":2712,"stimulus":"audio/Da_demo_Mary_doesnt_like_ice_cream.mp3","response":0,"test_part":"test","phrase":"Da_demo_Mary_doesnt_like_ice_cream","trial_type":"audio-button-response","trial_index":41,"time_elapsed":111782,"internal_node_id":"0.0-2.0-0.18"},{"rt":4688,"stimulus":"audio/4b_natural_Thomas_didnt_see_PATRICK.mp3","response":0,"test_part":"test","phrase":"4b_natural_Thomas_didnt_see_PATRICK","trial_type":"audio-button-response","trial_index":43,"time_elapsed":117146,"internal_node_id":"0.0-2.0-0.19"},{"rt":2739,"stimulus":"audio/Da_natural_Mary_doesnt_like_ice_cream.mp3","response":0,"test_part":"test","phrase":"Da_natural_Mary_doesnt_like_ice_cream","trial_type":"audio-button-response","trial_index":45,"time_elapsed":120866,"internal_node_id":"0.0-2.0-0.20"},{"rt":3091,"stimulus":"audio/3b_demo_Susan_didnt_get_ONE_credit.mp3","response":1,"test_part":"test","phrase":"3b_demo_Susan_didnt_get_ONE_credit","trial_type":"audio-button-response","trial_index":47,"time_elapsed":124850,"internal_node_id":"0.0-2.0-0.21"},{"rt":2571,"stimulus":"audio/4a_demo_Thomas_didnt_see_Patrick.mp3","response":1,"test_part":"test","phrase":"4a_demo_Thomas_didnt_see_Patrick","trial_type":"audio-button-response","trial_index":49,"time_elapsed":128377,"internal_node_id":"0.0-2.0-0.22"},{"rt":2229,"stimulus":"audio/2a_natural_Peter_wont_eat_anything.mp3","response":0,"test_part":"test","phrase":"2a_natural_Peter_wont_eat_anything","trial_type":"audio-button-response","trial_index":51,"time_elapsed":131707,"internal_node_id":"0.0-2.0-0.23"},{"rt":2621,"stimulus":"audio/4a_natural_Thomas_didnt_see_Patrick.mp3","response":0,"test_part":"test","phrase":"4a_natural_Thomas_didnt_see_Patrick","trial_type":"audio-button-response","trial_index":53,"time_elapsed":135220,"internal_node_id":"0.0-2.0-0.24"},{"rt":2301,"stimulus":"audio/9a_natural_Arthur_wasnt_tipsy.mp3","response":0,"test_part":"test","phrase":"9a_natural_Arthur_wasnt_tipsy","trial_type":"audio-button-response","trial_index":55,"time_elapsed":138208,"internal_node_id":"0.0-2.0-0.25"},{"rt":3072,"stimulus":"audio/4b_demo_Thomas_didnt_see_PATRICK.mp3","response":1,"test_part":"test","phrase":"4b_demo_Thomas_didnt_see_PATRICK","trial_type":"audio-button-response","trial_index":57,"time_elapsed":141971,"internal_node_id":"0.0-2.0-0.26"},{"rt":2640,"stimulus":"audio/Ca_demo_Nick_doesnt_listen_to_anyone.mp3","response":0,"test_part":"test","phrase":"Ca_demo_Nick_doesnt_listen_to_anyone","trial_type":"audio-button-response","trial_index":59,"time_elapsed":145271,"internal_node_id":"0.0-2.0-0.27"},{"rt":2160,"stimulus":"audio/9a_demo_Arthur_wasnt_tipsy.mp3","response":1,"test_part":"test","phrase":"9a_demo_Arthur_wasnt_tipsy","trial_type":"audio-button-response","trial_index":61,"time_elapsed":148359,"internal_node_id":"0.0-2.0-0.28"},{"rt":2749,"stimulus":"audio/Db_natural_Mary_doesnt_LIKE_ice_cream.mp3","response":0,"test_part":"test","phrase":"Db_natural_Mary_doesnt_LIKE_ice_cream","trial_type":"audio-button-response","trial_index":63,"time_elapsed":151841,"internal_node_id":"0.0-2.0-0.29"},{"rt":2491,"stimulus":"audio/9b_demo_Arthur_wasnt_TIPSY.mp3","response":1,"test_part":"test","phrase":"9b_demo_Arthur_wasnt_TIPSY","trial_type":"audio-button-response","trial_index":65,"time_elapsed":154951,"internal_node_id":"0.0-2.0-0.30"},{"rt":2379,"stimulus":"audio/3a_natural_Susan_didnt_get_one_credit.mp3","response":0,"test_part":"test","phrase":"3a_natural_Susan_didnt_get_one_credit","trial_type":"audio-button-response","trial_index":67,"time_elapsed":158071,"internal_node_id":"0.0-2.0-0.31"},{"rt":2360,"stimulus":"audio/1a_natural_the_inbox_wasnt_full.mp3","response":0,"test_part":"test","phrase":"1a_natural_the_inbox_wasnt_full","trial_type":"audio-button-response","trial_index":69,"time_elapsed":161371,"internal_node_id":"0.0-2.0-0.32"},{"rt":2669,"stimulus":"audio/Aa_demo_Ken_didnt_feed_the_cat.mp3","response":0,"test_part":"test","phrase":"Aa_demo_Ken_didnt_feed_the_cat","trial_type":"audio-button-response","trial_index":71,"time_elapsed":164881,"internal_node_id":"0.0-2.0-0.33"},{"rt":4880,"stimulus":"audio/5b_demo_the_food_didnt_taste_GOOD.mp3","response":1,"test_part":"test","phrase":"5b_demo_the_food_didnt_taste_GOOD","trial_type":"audio-button-response","trial_index":73,"time_elapsed":170721,"internal_node_id":"0.0-2.0-0.34"},{"rt":3131,"stimulus":"audio/Ea_natural_We_didnt_get_one_Christmas_card.mp3","response":0,"test_part":"test","phrase":"Ea_natural_We_didnt_get_one_Christmas_card","trial_type":"audio-button-response","trial_index":75,"time_elapsed":175001,"internal_node_id":"0.0-2.0-0.35"},{"rt":2539,"stimulus":"audio/3b_natural_Susan_didnt_get_ONE_credit.mp3","response":0,"test_part":"test","phrase":"3b_natural_Susan_didnt_get_ONE_credit","trial_type":"audio-button-response","trial_index":77,"time_elapsed":178471,"internal_node_id":"0.0-2.0-0.36"},{"rt":2349,"stimulus":"audio/5a_natural_the_food_didnt_taste_good.mp3","response":0,"test_part":"test","phrase":"5a_natural_the_food_didnt_taste_good","trial_type":"audio-button-response","trial_index":79,"time_elapsed":181646,"internal_node_id":"0.0-2.0-0.37"},{"rt":3309,"stimulus":"audio/Ab_natural_Ken_didnt_feed_the_CAT.mp3","response":1,"test_part":"test","phrase":"Ab_natural_Ken_didnt_feed_the_CAT","trial_type":"audio-button-response","trial_index":81,"time_elapsed":185621,"internal_node_id":"0.0-2.0-0.38"},{"rt":7309,"stimulus":"audio/5a_demo_the_food_didnt_taste_good.mp3","response":0,"test_part":"test","phrase":"5a_demo_the_food_didnt_taste_good","trial_type":"audio-button-response","trial_index":83,"time_elapsed":194001,"internal_node_id":"0.0-2.0-0.39"}]