[{"rt":2581,"stimulus":"audio/3a_demo_Susan_didnt_get_one_credit.mp3","response":0,"test_part":"test","phrase":"3a_demo_Susan_didnt_get_one_credit","trial_type":"audio-button-response","trial_index":2,"time_elapsed":4067,"internal_node_id":"0.0-2.0-0.0"},{"rt":1579,"stimulus":"audio/1b_natural_the_inbox_wasnt_FULL.mp3","response":0,"test_part":"test","phrase":"1b_natural_the_inbox_wasnt_FULL","trial_type":"audio-button-response","trial_index":4,"time_elapsed":6741,"internal_node_id":"0.0-2.0-0.1"},{"rt":1808,"stimulus":"audio/3a_natural_Susan_didnt_get_one_credit.mp3","response":1,"test_part":"test","phrase":"3a_natural_Susan_didnt_get_one_credit","trial_type":"audio-button-response","trial_index":6,"time_elapsed":9329,"internal_node_id":"0.0-2.0-0.2"},{"rt":1491,"stimulus":"audio/9a_demo_Arthur_wasnt_tipsy.mp3","response":1,"test_part":"test","phrase":"9a_demo_Arthur_wasnt_tipsy","trial_type":"audio-button-response","trial_index":8,"time_elapsed":11564,"internal_node_id":"0.0-2.0-0.3"},{"rt":1429,"stimulus":"audio/3b_demo_Susan_didnt_get_ONE_credit.mp3","response":1,"test_part":"test","phrase":"3b_demo_Susan_didnt_get_ONE_credit","trial_type":"audio-button-response","trial_index":10,"time_elapsed":14224,"internal_node_id":"0.0-2.0-0.4"},{"rt":5099,"stimulus":"audio/9b_natural_Arthur_wasnt_TIPSY.mp3","response":1,"test_part":"test","phrase":"9b_natural_Arthur_wasnt_TIPSY","trial_type":"audio-button-response","trial_index":12,"time_elapsed":20209,"internal_node_id":"0.0-2.0-0.5"},{"rt":1221,"stimulus":"audio/Db_demo_Mary_doesnt_LIKE_ice_cream.mp3","response":0,"test_part":"test","phrase":"Db_demo_Mary_doesnt_LIKE_ice_cream","trial_type":"audio-button-response","trial_index":14,"time_elapsed":23026,"internal_node_id":"0.0-2.0-0.6"},{"rt":1389,"stimulus":"audio/4a_demo_Thomas_didnt_see_Patrick.mp3","response":0,"test_part":"test","phrase":"4a_demo_Thomas_didnt_see_Patrick","trial_type":"audio-button-response","trial_index":16,"time_elapsed":25469,"internal_node_id":"0.0-2.0-0.7"},{"rt":1099,"stimulus":"audio/9b_demo_Arthur_wasnt_TIPSY.mp3","response":1,"test_part":"test","phrase":"9b_demo_Arthur_wasnt_TIPSY","trial_type":"audio-button-response","trial_index":18,"time_elapsed":27783,"internal_node_id":"0.0-2.0-0.8"},{"rt":2861,"stimulus":"audio/Ab_natural_Ken_didnt_feed_the_CAT.mp3","response":0,"test_part":"test","phrase":"Ab_natural_Ken_didnt_feed_the_CAT","trial_type":"audio-button-response","trial_index":20,"time_elapsed":31792,"internal_node_id":"0.0-2.0-0.9"},{"rt":2600,"stimulus":"audio/Eb_natural_We_didnt_get_ONE_Christmas_card.mp3","response":0,"test_part":"test","phrase":"Eb_natural_We_didnt_get_ONE_Christmas_card","trial_type":"audio-button-response","trial_index":22,"time_elapsed":35904,"internal_node_id":"0.0-2.0-0.10"},{"rt":1480,"stimulus":"audio/5a_demo_the_food_didnt_taste_good.mp3","response":0,"test_part":"test","phrase":"5a_demo_the_food_didnt_taste_good","trial_type":"audio-button-response","trial_index":24,"time_elapsed":38472,"internal_node_id":"0.0-2.0-0.11"},{"rt":4280,"stimulus":"audio/Ab_demo_Ken_didnt_feed_the_CAT.mp3","response":0,"test_part":"test","phrase":"Ab_demo_Ken_didnt_feed_the_CAT","trial_type":"audio-button-response","trial_index":26,"time_elapsed":43767,"internal_node_id":"0.0-2.0-0.12"},{"rt":971,"stimulus":"audio/Da_natural_Mary_doesnt_like_ice_cream.mp3","response":0,"test_part":"test","phrase":"Da_natural_Mary_doesnt_like_ice_cream","trial_type":"audio-button-response","trial_index":28,"time_elapsed":45997,"internal_node_id":"0.0-2.0-0.13"},{"rt":2381,"stimulus":"audio/1b_demo_the_inbox_wasnt_FULL.mp3","response":0,"test_part":"test","phrase":"1b_demo_the_inbox_wasnt_FULL","trial_type":"audio-button-response","trial_index":30,"time_elapsed":49084,"internal_node_id":"0.0-2.0-0.14"},{"rt":840,"stimulus":"audio/Aa_demo_Ken_didnt_feed_the_cat.mp3","response":0,"test_part":"test","phrase":"Aa_demo_Ken_didnt_feed_the_cat","trial_type":"audio-button-response","trial_index":32,"time_elapsed":50302,"internal_node_id":"0.0-2.0-0.15"},{"rt":1541,"stimulus":"audio/Ca_natural_Nick_doesnt_listen_to_anyone.mp3","response":0,"test_part":"test","phrase":"Ca_natural_Nick_doesnt_listen_to_anyone","trial_type":"audio-button-response","trial_index":34,"time_elapsed":52285,"internal_node_id":"0.0-2.0-0.16"},{"rt":739,"stimulus":"audio/1a_demo_the_inbox_wasnt_full.mp3","response":0,"test_part":"test","phrase":"1a_demo_the_inbox_wasnt_full","trial_type":"audio-button-response","trial_index":36,"time_elapsed":53706,"internal_node_id":"0.0-2.0-0.17"},{"rt":731,"stimulus":"audio/3b_natural_Susan_didnt_get_ONE_credit.mp3","response":0,"test_part":"test","phrase":"3b_natural_Susan_didnt_get_ONE_credit","trial_type":"audio-button-response","trial_index":38,"time_elapsed":55031,"internal_node_id":"0.0-2.0-0.18"},{"rt":680,"stimulus":"audio/Db_natural_Mary_doesnt_LIKE_ice_cream.mp3","response":0,"test_part":"test","phrase":"Db_natural_Mary_doesnt_LIKE_ice_cream","trial_type":"audio-button-response","trial_index":40,"time_elapsed":56198,"internal_node_id":"0.0-2.0-0.19"},{"rt":1000,"stimulus":"audio/2b_demo_Peter_wont_eat_ANYTHING.mp3","response":0,"test_part":"test","phrase":"2b_demo_Peter_wont_eat_ANYTHING","trial_type":"audio-button-response","trial_index":42,"time_elapsed":57704,"internal_node_id":"0.0-2.0-0.20"},{"rt":821,"stimulus":"audio/4a_natural_Thomas_didnt_see_Patrick.mp3","response":0,"test_part":"test","phrase":"4a_natural_Thomas_didnt_see_Patrick","trial_type":"audio-button-response","trial_index":44,"time_elapsed":59034,"internal_node_id":"0.0-2.0-0.21"},{"rt":901,"stimulus":"audio/2a_demo_Peter_wont_eat_anything.mp3","response":0,"test_part":"test","phrase":"2a_demo_Peter_wont_eat_anything","trial_type":"audio-button-response","trial_index":46,"time_elapsed":60352,"internal_node_id":"0.0-2.0-0.22"},{"rt":659,"stimulus":"audio/4b_demo_Thomas_didnt_see_PATRICK.mp3","response":0,"test_part":"test","phrase":"4b_demo_Thomas_didnt_see_PATRICK","trial_type":"audio-button-response","trial_index":48,"time_elapsed":61495,"internal_node_id":"0.0-2.0-0.23"},{"rt":1421,"stimulus":"audio/Aa_natural_Ken_didnt_feed_the_cat.mp3","response":1,"test_part":"test","phrase":"Aa_natural_Ken_didnt_feed_the_cat","trial_type":"audio-button-response","trial_index":50,"time_elapsed":63401,"internal_node_id":"0.0-2.0-0.24"},{"rt":1069,"stimulus":"audio/4b_natural_Thomas_didnt_see_PATRICK.mp3","response":1,"test_part":"test","phrase":"4b_natural_Thomas_didnt_see_PATRICK","trial_type":"audio-button-response","trial_index":52,"time_elapsed":65112,"internal_node_id":"0.0-2.0-0.25"},{"rt":1280,"stimulus":"audio/1a_natural_the_inbox_wasnt_full.mp3","response":1,"test_part":"test","phrase":"1a_natural_the_inbox_wasnt_full","trial_type":"audio-button-response","trial_index":54,"time_elapsed":67223,"internal_node_id":"0.0-2.0-0.26"},{"rt":720,"stimulus":"audio/Ea_natural_We_didnt_get_one_Christmas_card.mp3","response":1,"test_part":"test","phrase":"Ea_natural_We_didnt_get_one_Christmas_card","trial_type":"audio-button-response","trial_index":56,"time_elapsed":68810,"internal_node_id":"0.0-2.0-0.27"},{"rt":1491,"stimulus":"audio/5a_natural_the_food_didnt_taste_good.mp3","response":1,"test_part":"test","phrase":"5a_natural_the_food_didnt_taste_good","trial_type":"audio-button-response","trial_index":58,"time_elapsed":70803,"internal_node_id":"0.0-2.0-0.28"},{"rt":1211,"stimulus":"audio/2a_natural_Peter_wont_eat_anything.mp3","response":1,"test_part":"test","phrase":"2a_natural_Peter_wont_eat_anything","trial_type":"audio-button-response","trial_index":60,"time_elapsed":72441,"internal_node_id":"0.0-2.0-0.29"},{"rt":760,"stimulus":"audio/Eb_demo_We_didnt_get_ONE_Christmas_card.mp3","response":1,"test_part":"test","phrase":"Eb_demo_We_didnt_get_ONE_Christmas_card","trial_type":"audio-button-response","trial_index":62,"time_elapsed":73962,"internal_node_id":"0.0-2.0-0.30"},{"rt":480,"stimulus":"audio/5b_demo_the_food_didnt_taste_GOOD.mp3","response":1,"test_part":"test","phrase":"5b_demo_the_food_didnt_taste_GOOD","trial_type":"audio-button-response","trial_index":64,"time_elapsed":75017,"internal_node_id":"0.0-2.0-0.31"},{"rt":421,"stimulus":"audio/2b_natural_Peter_wont_eat_ANYTHING.mp3","response":1,"test_part":"test","phrase":"2b_natural_Peter_wont_eat_ANYTHING","trial_type":"audio-button-response","trial_index":66,"time_elapsed":76391,"internal_node_id":"0.0-2.0-0.32"},{"rt":472,"stimulus":"audio/Ea_demo_We_didnt_get_one_Christmas_card.mp3","response":1,"test_part":"test","phrase":"Ea_demo_We_didnt_get_one_Christmas_card","trial_type":"audio-button-response","trial_index":68,"time_elapsed":77238,"internal_node_id":"0.0-2.0-0.33"},{"rt":520,"stimulus":"audio/Cb_natural_Nick_doesnt_listen_to_ANYONE.mp3","response":1,"test_part":"test","phrase":"Cb_natural_Nick_doesnt_listen_to_ANYONE","trial_type":"audio-button-response","trial_index":70,"time_elapsed":78126,"internal_node_id":"0.0-2.0-0.34"},{"rt":480,"stimulus":"audio/9a_natural_Arthur_wasnt_tipsy.mp3","response":1,"test_part":"test","phrase":"9a_natural_Arthur_wasnt_tipsy","trial_type":"audio-button-response","trial_index":72,"time_elapsed":78918,"internal_node_id":"0.0-2.0-0.35"},{"rt":419,"stimulus":"audio/Cb_demo_Nick_doesnt_listen_to_ANYONE.mp3","response":1,"test_part":"test","phrase":"Cb_demo_Nick_doesnt_listen_to_ANYONE","trial_type":"audio-button-response","trial_index":74,"time_elapsed":79703,"internal_node_id":"0.0-2.0-0.36"},{"rt":549,"stimulus":"audio/5b_natural_the_food_didnt_taste_GOOD.mp3","response":1,"test_part":"test","phrase":"5b_natural_the_food_didnt_taste_GOOD","trial_type":"audio-button-response","trial_index":76,"time_elapsed":80637,"internal_node_id":"0.0-2.0-0.37"},{"rt":509,"stimulus":"audio/Da_demo_Mary_doesnt_like_ice_cream.mp3","response":1,"test_part":"test","phrase":"Da_demo_Mary_doesnt_like_ice_cream","trial_type":"audio-button-response","trial_index":78,"time_elapsed":81392,"internal_node_id":"0.0-2.0-0.38"},{"rt":451,"stimulus":"audio/Ca_demo_Nick_doesnt_listen_to_anyone.mp3","response":1,"test_part":"test","phrase":"Ca_demo_Nick_doesnt_listen_to_anyone","trial_type":"audio-button-response","trial_index":80,"time_elapsed":82122,"internal_node_id":"0.0-2.0-0.39"}]