[{"rt":9264,"stimulus":"audio/3a_demo_Susan_didnt_get_one_credit.mp3","response":2,"test_part":"test","phrase":"3a_demo_Susan_didnt_get_one_credit","trial_type":"audio-button-response","trial_index":2,"time_elapsed":36156,"internal_node_id":"0.0-2.0-0.0"},{"rt":13872,"stimulus":"audio/3a_demo_Susan_didnt_get_one_credit.mp3","response":0,"test_part":"test","phrase":"3a_demo_Susan_didnt_get_one_credit","trial_type":"audio-button-response","trial_index":3,"time_elapsed":50035,"internal_node_id":"0.0-2.0-1.0-0.0"},{"rt":7520,"stimulus":"audio/4a_demo_Thomas_didnt_see_Patrick.mp3","response":0,"test_part":"test","phrase":"4a_demo_Thomas_didnt_see_Patrick","trial_type":"audio-button-response","trial_index":5,"time_elapsed":60148,"internal_node_id":"0.0-2.0-0.1"},{"rt":7933,"stimulus":"audio/3b_natural_Susan_didnt_get_ONE_credit.mp3","response":0,"test_part":"test","phrase":"3b_natural_Susan_didnt_get_ONE_credit","trial_type":"audio-button-response","trial_index":7,"time_elapsed":73115,"internal_node_id":"0.0-2.0-0.2"},{"rt":6851,"stimulus":"audio/2b_natural_Peter_wont_eat_ANYTHING.mp3","response":2,"test_part":"test","phrase":"2b_natural_Peter_wont_eat_ANYTHING","trial_type":"audio-button-response","trial_index":9,"time_elapsed":84777,"internal_node_id":"0.0-2.0-0.3"},{"rt":5707,"stimulus":"audio/2b_natural_Peter_wont_eat_ANYTHING.mp3","response":1,"test_part":"test","phrase":"2b_natural_Peter_wont_eat_ANYTHING","trial_type":"audio-button-response","trial_index":10,"time_elapsed":90488,"internal_node_id":"0.0-2.0-1.3-0.3"},{"rt":4512,"stimulus":"audio/1a_demo_the_inbox_wasnt_full.mp3","response":2,"test_part":"test","phrase":"1a_demo_the_inbox_wasnt_full","trial_type":"audio-button-response","trial_index":12,"time_elapsed":97080,"internal_node_id":"0.0-2.0-0.4"},{"rt":1917,"stimulus":"audio/1a_demo_the_inbox_wasnt_full.mp3","response":0,"test_part":"test","phrase":"1a_demo_the_inbox_wasnt_full","trial_type":"audio-button-response","trial_index":13,"time_elapsed":99000,"internal_node_id":"0.0-2.0-1.4-0.4"},{"rt":4747,"stimulus":"audio/2a_demo_Peter_wont_eat_anything.mp3","response":2,"test_part":"test","phrase":"2a_demo_Peter_wont_eat_anything","trial_type":"audio-button-response","trial_index":15,"time_elapsed":105255,"internal_node_id":"0.0-2.0-0.5"},{"rt":1901,"stimulus":"audio/2a_demo_Peter_wont_eat_anything.mp3","response":0,"test_part":"test","phrase":"2a_demo_Peter_wont_eat_anything","trial_type":"audio-button-response","trial_index":16,"time_elapsed":107160,"internal_node_id":"0.0-2.0-1.5-0.5"},{"rt":7701,"stimulus":"audio/1b_natural_the_inbox_wasnt_FULL.mp3","response":2,"test_part":"test","phrase":"1b_natural_the_inbox_wasnt_FULL","trial_type":"audio-button-response","trial_index":18,"time_elapsed":120998,"internal_node_id":"0.0-2.0-0.6"},{"rt":6747,"stimulus":"audio/1b_natural_the_inbox_wasnt_FULL.mp3","response":0,"test_part":"test","phrase":"1b_natural_the_inbox_wasnt_FULL","trial_type":"audio-button-response","trial_index":19,"time_elapsed":127749,"internal_node_id":"0.0-2.0-1.6-0.6"},{"rt":4853,"stimulus":"audio/2a_natural_Peter_wont_eat_anything.mp3","response":2,"test_part":"test","phrase":"2a_natural_Peter_wont_eat_anything","trial_type":"audio-button-response","trial_index":21,"time_elapsed":134653,"internal_node_id":"0.0-2.0-0.7"},{"rt":1629,"stimulus":"audio/2a_natural_Peter_wont_eat_anything.mp3","response":1,"test_part":"test","phrase":"2a_natural_Peter_wont_eat_anything","trial_type":"audio-button-response","trial_index":22,"time_elapsed":136284,"internal_node_id":"0.0-2.0-1.7-0.7"},{"rt":4752,"stimulus":"audio/1b_demo_the_inbox_wasnt_FULL.mp3","response":2,"test_part":"test","phrase":"1b_demo_the_inbox_wasnt_FULL","trial_type":"audio-button-response","trial_index":24,"time_elapsed":142597,"internal_node_id":"0.0-2.0-0.8"},{"rt":11232,"stimulus":"audio/1b_demo_the_inbox_wasnt_FULL.mp3","response":0,"test_part":"test","phrase":"1b_demo_the_inbox_wasnt_FULL","trial_type":"audio-button-response","trial_index":25,"time_elapsed":153832,"internal_node_id":"0.0-2.0-1.8-0.8"},{"rt":4643,"stimulus":"audio/9a_natural_Arthur_wasnt_tipsy.mp3","response":2,"test_part":"test","phrase":"9a_natural_Arthur_wasnt_tipsy","trial_type":"audio-button-response","trial_index":27,"time_elapsed":161043,"internal_node_id":"0.0-2.0-0.9"},{"rt":3003,"stimulus":"audio/9a_natural_Arthur_wasnt_tipsy.mp3","response":0,"test_part":"test","phrase":"9a_natural_Arthur_wasnt_tipsy","trial_type":"audio-button-response","trial_index":28,"time_elapsed":164048,"internal_node_id":"0.0-2.0-1.9-0.9"},{"rt":7461,"stimulus":"audio/Aa_natural_Ken_didnt_feed_the_cat.mp3","response":2,"test_part":"test","phrase":"Aa_natural_Ken_didnt_feed_the_cat","trial_type":"audio-button-response","trial_index":30,"time_elapsed":173251,"internal_node_id":"0.0-2.0-0.10"},{"rt":7800,"stimulus":"audio/Aa_natural_Ken_didnt_feed_the_cat.mp3","response":0,"test_part":"test","phrase":"Aa_natural_Ken_didnt_feed_the_cat","trial_type":"audio-button-response","trial_index":31,"time_elapsed":181054,"internal_node_id":"0.0-2.0-1.10-0.10"},{"rt":5619,"stimulus":"audio/2b_demo_Peter_wont_eat_ANYTHING.mp3","response":2,"test_part":"test","phrase":"2b_demo_Peter_wont_eat_ANYTHING","trial_type":"audio-button-response","trial_index":33,"time_elapsed":188213,"internal_node_id":"0.0-2.0-0.11"},{"rt":4461,"stimulus":"audio/2b_demo_Peter_wont_eat_ANYTHING.mp3","response":1,"test_part":"test","phrase":"2b_demo_Peter_wont_eat_ANYTHING","trial_type":"audio-button-response","trial_index":34,"time_elapsed":192678,"internal_node_id":"0.0-2.0-1.11-0.11"},{"rt":3859,"stimulus":"audio/Eb_demo_We_didnt_get_ONE_Christmas_card.mp3","response":1,"test_part":"test","phrase":"Eb_demo_We_didnt_get_ONE_Christmas_card","trial_type":"audio-button-response","trial_index":36,"time_elapsed":198255,"internal_node_id":"0.0-2.0-0.12"},{"rt":5893,"stimulus":"audio/1a_natural_the_inbox_wasnt_full.mp3","response":2,"test_part":"test","phrase":"1a_natural_the_inbox_wasnt_full","trial_type":"audio-button-response","trial_index":38,"time_elapsed":205577,"internal_node_id":"0.0-2.0-0.13"},{"rt":2227,"stimulus":"audio/1a_natural_the_inbox_wasnt_full.mp3","response":0,"test_part":"test","phrase":"1a_natural_the_inbox_wasnt_full","trial_type":"audio-button-response","trial_index":39,"time_elapsed":207806,"internal_node_id":"0.0-2.0-1.13-0.13"},{"rt":5795,"stimulus":"audio/Ca_demo_Nick_doesnt_listen_to_anyone.mp3","response":0,"test_part":"test","phrase":"Ca_demo_Nick_doesnt_listen_to_anyone","trial_type":"audio-button-response","trial_index":41,"time_elapsed":215881,"internal_node_id":"0.0-2.0-0.14"},{"rt":5837,"stimulus":"audio/Ab_natural_Ken_didnt_feed_the_CAT.mp3","response":1,"test_part":"test","phrase":"Ab_natural_Ken_didnt_feed_the_CAT","trial_type":"audio-button-response","trial_index":43,"time_elapsed":223274,"internal_node_id":"0.0-2.0-0.15"},{"rt":5405,"stimulus":"audio/Ca_natural_Nick_doesnt_listen_to_anyone.mp3","response":1,"test_part":"test","phrase":"Ca_natural_Nick_doesnt_listen_to_anyone","trial_type":"audio-button-response","trial_index":45,"time_elapsed":230117,"internal_node_id":"0.0-2.0-0.16"},{"rt":3296,"stimulus":"audio/3a_natural_Susan_didnt_get_one_credit.mp3","response":0,"test_part":"test","phrase":"3a_natural_Susan_didnt_get_one_credit","trial_type":"audio-button-response","trial_index":47,"time_elapsed":234748,"internal_node_id":"0.0-2.0-0.17"},{"rt":2499,"stimulus":"audio/9b_natural_Arthur_wasnt_TIPSY.mp3","response":0,"test_part":"test","phrase":"9b_natural_Arthur_wasnt_TIPSY","trial_type":"audio-button-response","trial_index":49,"time_elapsed":239808,"internal_node_id":"0.0-2.0-0.18"},{"rt":4083,"stimulus":"audio/Da_natural_Mary_doesnt_like_ice_cream.mp3","response":2,"test_part":"test","phrase":"Da_natural_Mary_doesnt_like_ice_cream","trial_type":"audio-button-response","trial_index":51,"time_elapsed":244902,"internal_node_id":"0.0-2.0-0.19"},{"rt":2253,"stimulus":"audio/Da_natural_Mary_doesnt_like_ice_cream.mp3","response":0,"test_part":"test","phrase":"Da_natural_Mary_doesnt_like_ice_cream","trial_type":"audio-button-response","trial_index":52,"time_elapsed":247160,"internal_node_id":"0.0-2.0-1.19-0.19"},{"rt":5075,"stimulus":"audio/9a_demo_Arthur_wasnt_tipsy.mp3","response":0,"test_part":"test","phrase":"9a_demo_Arthur_wasnt_tipsy","trial_type":"audio-button-response","trial_index":54,"time_elapsed":252897,"internal_node_id":"0.0-2.0-0.20"},{"rt":3552,"stimulus":"audio/Db_natural_Mary_doesnt_LIKE_ice_cream.mp3","response":0,"test_part":"test","phrase":"Db_natural_Mary_doesnt_LIKE_ice_cream","trial_type":"audio-button-response","trial_index":56,"time_elapsed":257668,"internal_node_id":"0.0-2.0-0.21"},{"rt":2557,"stimulus":"audio/Aa_demo_Ken_didnt_feed_the_cat.mp3","response":0,"test_part":"test","phrase":"Aa_demo_Ken_didnt_feed_the_cat","trial_type":"audio-button-response","trial_index":58,"time_elapsed":260785,"internal_node_id":"0.0-2.0-0.22"},{"rt":8475,"stimulus":"audio/4a_natural_Thomas_didnt_see_Patrick.mp3","response":1,"test_part":"test","phrase":"4a_natural_Thomas_didnt_see_Patrick","trial_type":"audio-button-response","trial_index":60,"time_elapsed":270081,"internal_node_id":"0.0-2.0-0.23"},{"rt":3608,"stimulus":"audio/Da_demo_Mary_doesnt_like_ice_cream.mp3","response":0,"test_part":"test","phrase":"Da_demo_Mary_doesnt_like_ice_cream","trial_type":"audio-button-response","trial_index":62,"time_elapsed":274676,"internal_node_id":"0.0-2.0-0.24"},{"rt":5608,"stimulus":"audio/5b_demo_the_food_didnt_taste_GOOD.mp3","response":0,"test_part":"test","phrase":"5b_demo_the_food_didnt_taste_GOOD","trial_type":"audio-button-response","trial_index":64,"time_elapsed":281138,"internal_node_id":"0.0-2.0-0.25"},{"rt":2933,"stimulus":"audio/Cb_demo_Nick_doesnt_listen_to_ANYONE.mp3","response":2,"test_part":"test","phrase":"Cb_demo_Nick_doesnt_listen_to_ANYONE","trial_type":"audio-button-response","trial_index":66,"time_elapsed":285261,"internal_node_id":"0.0-2.0-0.26"},{"rt":880,"stimulus":"audio/Cb_demo_Nick_doesnt_listen_to_ANYONE.mp3","response":0,"test_part":"test","phrase":"Cb_demo_Nick_doesnt_listen_to_ANYONE","trial_type":"audio-button-response","trial_index":67,"time_elapsed":286143,"internal_node_id":"0.0-2.0-1.26-0.26"},{"rt":1925,"stimulus":"audio/5a_natural_the_food_didnt_taste_good.mp3","response":0,"test_part":"test","phrase":"5a_natural_the_food_didnt_taste_good","trial_type":"audio-button-response","trial_index":69,"time_elapsed":289671,"internal_node_id":"0.0-2.0-0.27"},{"rt":2816,"stimulus":"audio/4b_natural_Thomas_didnt_see_PATRICK.mp3","response":1,"test_part":"test","phrase":"4b_natural_Thomas_didnt_see_PATRICK","trial_type":"audio-button-response","trial_index":71,"time_elapsed":293174,"internal_node_id":"0.0-2.0-0.28"},{"rt":2949,"stimulus":"audio/Ea_demo_We_didnt_get_one_Christmas_card.mp3","response":0,"test_part":"test","phrase":"Ea_demo_We_didnt_get_one_Christmas_card","trial_type":"audio-button-response","trial_index":73,"time_elapsed":296763,"internal_node_id":"0.0-2.0-0.29"},{"rt":3821,"stimulus":"audio/3b_demo_Susan_didnt_get_ONE_credit.mp3","response":1,"test_part":"test","phrase":"3b_demo_Susan_didnt_get_ONE_credit","trial_type":"audio-button-response","trial_index":75,"time_elapsed":301295,"internal_node_id":"0.0-2.0-0.30"},{"rt":3176,"stimulus":"audio/Ea_natural_We_didnt_get_one_Christmas_card.mp3","response":1,"test_part":"test","phrase":"Ea_natural_We_didnt_get_one_Christmas_card","trial_type":"audio-button-response","trial_index":77,"time_elapsed":305410,"internal_node_id":"0.0-2.0-0.31"},{"rt":2984,"stimulus":"audio/4b_demo_Thomas_didnt_see_PATRICK.mp3","response":1,"test_part":"test","phrase":"4b_demo_Thomas_didnt_see_PATRICK","trial_type":"audio-button-response","trial_index":79,"time_elapsed":309480,"internal_node_id":"0.0-2.0-0.32"},{"rt":3565,"stimulus":"audio/Eb_natural_We_didnt_get_ONE_Christmas_card.mp3","response":1,"test_part":"test","phrase":"Eb_natural_We_didnt_get_ONE_Christmas_card","trial_type":"audio-button-response","trial_index":81,"time_elapsed":313594,"internal_node_id":"0.0-2.0-0.33"},{"rt":4104,"stimulus":"audio/9b_demo_Arthur_wasnt_TIPSY.mp3","response":1,"test_part":"test","phrase":"9b_demo_Arthur_wasnt_TIPSY","trial_type":"audio-button-response","trial_index":83,"time_elapsed":318278,"internal_node_id":"0.0-2.0-0.34"},{"rt":3099,"stimulus":"audio/Ab_demo_Ken_didnt_feed_the_CAT.mp3","response":1,"test_part":"test","phrase":"Ab_demo_Ken_didnt_feed_the_CAT","trial_type":"audio-button-response","trial_index":85,"time_elapsed":321893,"internal_node_id":"0.0-2.0-0.35"},{"rt":5819,"stimulus":"audio/Db_demo_Mary_doesnt_LIKE_ice_cream.mp3","response":0,"test_part":"test","phrase":"Db_demo_Mary_doesnt_LIKE_ice_cream","trial_type":"audio-button-response","trial_index":87,"time_elapsed":328350,"internal_node_id":"0.0-2.0-0.36"},{"rt":2552,"stimulus":"audio/5a_demo_the_food_didnt_taste_good.mp3","response":0,"test_part":"test","phrase":"5a_demo_the_food_didnt_taste_good","trial_type":"audio-button-response","trial_index":89,"time_elapsed":331807,"internal_node_id":"0.0-2.0-0.37"},{"rt":4035,"stimulus":"audio/Cb_natural_Nick_doesnt_listen_to_ANYONE.mp3","response":0,"test_part":"test","phrase":"Cb_natural_Nick_doesnt_listen_to_ANYONE","trial_type":"audio-button-response","trial_index":91,"time_elapsed":336397,"internal_node_id":"0.0-2.0-0.38"},{"rt":2675,"stimulus":"audio/5b_natural_the_food_didnt_taste_GOOD.mp3","response":0,"test_part":"test","phrase":"5b_natural_the_food_didnt_taste_GOOD","trial_type":"audio-button-response","trial_index":93,"time_elapsed":340128,"internal_node_id":"0.0-2.0-0.39"}]