[{"rt":18971,"stimulus":"audio/Ca_natural_Nick_doesnt_listen_to_anyone.mp3","response":2,"test_part":"test","phrase":"Ca_natural_Nick_doesnt_listen_to_anyone","trial_type":"audio-button-response","trial_index":2,"time_elapsed":57375,"internal_node_id":"0.0-2.0-0.0"},{"rt":9339,"stimulus":"audio/Ca_natural_Nick_doesnt_listen_to_anyone.mp3","response":0,"test_part":"test","phrase":"Ca_natural_Nick_doesnt_listen_to_anyone","trial_type":"audio-button-response","trial_index":3,"time_elapsed":66726,"internal_node_id":"0.0-2.0-1.0-0.0"},{"rt":10272,"stimulus":"audio/Ea_demo_We_didnt_get_one_Christmas_card.mp3","response":2,"test_part":"test","phrase":"Ea_demo_We_didnt_get_one_Christmas_card","trial_type":"audio-button-response","trial_index":5,"time_elapsed":79213,"internal_node_id":"0.0-2.0-0.1"},{"rt":35200,"stimulus":"audio/Ea_demo_We_didnt_get_one_Christmas_card.mp3","response":1,"test_part":"test","phrase":"Ea_demo_We_didnt_get_one_Christmas_card","trial_type":"audio-button-response","trial_index":6,"time_elapsed":114411,"internal_node_id":"0.0-2.0-1.1-0.1"},{"rt":17469,"stimulus":"audio/1a_natural_the_inbox_wasnt_full.mp3","response":2,"test_part":"test","phrase":"1a_natural_the_inbox_wasnt_full","trial_type":"audio-button-response","trial_index":8,"time_elapsed":133466,"internal_node_id":"0.0-2.0-0.2"},{"rt":8240,"stimulus":"audio/1a_natural_the_inbox_wasnt_full.mp3","response":0,"test_part":"test","phrase":"1a_natural_the_inbox_wasnt_full","trial_type":"audio-button-response","trial_index":9,"time_elapsed":141717,"internal_node_id":"0.0-2.0-1.2-0.2"},{"rt":4581,"stimulus":"audio/Cb_natural_Nick_doesnt_listen_to_ANYONE.mp3","response":1,"test_part":"test","phrase":"Cb_natural_Nick_doesnt_listen_to_ANYONE","trial_type":"audio-button-response","trial_index":11,"time_elapsed":147737,"internal_node_id":"0.0-2.0-0.3"},{"rt":14531,"stimulus":"audio/Da_demo_Mary_doesnt_like_ice_cream.mp3","response":2,"test_part":"test","phrase":"Da_demo_Mary_doesnt_like_ice_cream","trial_type":"audio-button-response","trial_index":13,"time_elapsed":163806,"internal_node_id":"0.0-2.0-0.4"},{"rt":3979,"stimulus":"audio/Da_demo_Mary_doesnt_like_ice_cream.mp3","response":0,"test_part":"test","phrase":"Da_demo_Mary_doesnt_like_ice_cream","trial_type":"audio-button-response","trial_index":14,"time_elapsed":167790,"internal_node_id":"0.0-2.0-1.4-0.4"},{"rt":5579,"stimulus":"audio/3b_demo_Susan_didnt_get_ONE_credit.mp3","response":1,"test_part":"test","phrase":"3b_demo_Susan_didnt_get_ONE_credit","trial_type":"audio-button-response","trial_index":16,"time_elapsed":174592,"internal_node_id":"0.0-2.0-0.5"},{"rt":11928,"stimulus":"audio/4a_demo_Thomas_didnt_see_Patrick.mp3","response":2,"test_part":"test","phrase":"4a_demo_Thomas_didnt_see_Patrick","trial_type":"audio-button-response","trial_index":18,"time_elapsed":187831,"internal_node_id":"0.0-2.0-0.6"},{"rt":4819,"stimulus":"audio/4a_demo_Thomas_didnt_see_Patrick.mp3","response":1,"test_part":"test","phrase":"4a_demo_Thomas_didnt_see_Patrick","trial_type":"audio-button-response","trial_index":19,"time_elapsed":192661,"internal_node_id":"0.0-2.0-1.6-0.6"},{"rt":6768,"stimulus":"audio/9a_natural_Arthur_wasnt_tipsy.mp3","response":2,"test_part":"test","phrase":"9a_natural_Arthur_wasnt_tipsy","trial_type":"audio-button-response","trial_index":21,"time_elapsed":200987,"internal_node_id":"0.0-2.0-0.7"},{"rt":51829,"stimulus":"audio/9a_natural_Arthur_wasnt_tipsy.mp3","response":0,"test_part":"test","phrase":"9a_natural_Arthur_wasnt_tipsy","trial_type":"audio-button-response","trial_index":22,"time_elapsed":252813,"internal_node_id":"0.0-2.0-1.7-0.7"},{"rt":12211,"stimulus":"audio/5a_natural_the_food_didnt_taste_good.mp3","response":2,"test_part":"test","phrase":"5a_natural_the_food_didnt_taste_good","trial_type":"audio-button-response","trial_index":24,"time_elapsed":267223,"internal_node_id":"0.0-2.0-0.8"},{"rt":6800,"stimulus":"audio/5a_natural_the_food_didnt_taste_good.mp3","response":1,"test_part":"test","phrase":"5a_natural_the_food_didnt_taste_good","trial_type":"audio-button-response","trial_index":25,"time_elapsed":274021,"internal_node_id":"0.0-2.0-1.8-0.8"},{"rt":4168,"stimulus":"audio/9a_demo_Arthur_wasnt_tipsy.mp3","response":2,"test_part":"test","phrase":"9a_demo_Arthur_wasnt_tipsy","trial_type":"audio-button-response","trial_index":27,"time_elapsed":279653,"internal_node_id":"0.0-2.0-0.9"},{"rt":3600,"stimulus":"audio/9a_demo_Arthur_wasnt_tipsy.mp3","response":1,"test_part":"test","phrase":"9a_demo_Arthur_wasnt_tipsy","trial_type":"audio-button-response","trial_index":28,"time_elapsed":283247,"internal_node_id":"0.0-2.0-1.9-0.9"},{"rt":4720,"stimulus":"audio/Cb_demo_Nick_doesnt_listen_to_ANYONE.mp3","response":1,"test_part":"test","phrase":"Cb_demo_Nick_doesnt_listen_to_ANYONE","trial_type":"audio-button-response","trial_index":30,"time_elapsed":289177,"internal_node_id":"0.0-2.0-0.10"},{"rt":4811,"stimulus":"audio/5b_natural_the_food_didnt_taste_GOOD.mp3","response":1,"test_part":"test","phrase":"5b_natural_the_food_didnt_taste_GOOD","trial_type":"audio-button-response","trial_index":32,"time_elapsed":295437,"internal_node_id":"0.0-2.0-0.11"},{"rt":7869,"stimulus":"audio/Aa_natural_Ken_didnt_feed_the_cat.mp3","response":2,"test_part":"test","phrase":"Aa_natural_Ken_didnt_feed_the_cat","trial_type":"audio-button-response","trial_index":34,"time_elapsed":304778,"internal_node_id":"0.0-2.0-0.12"},{"rt":3331,"stimulus":"audio/Aa_natural_Ken_didnt_feed_the_cat.mp3","response":1,"test_part":"test","phrase":"Aa_natural_Ken_didnt_feed_the_cat","trial_type":"audio-button-response","trial_index":35,"time_elapsed":308108,"internal_node_id":"0.0-2.0-1.12-0.12"},{"rt":5480,"stimulus":"audio/2b_natural_Peter_wont_eat_ANYTHING.mp3","response":1,"test_part":"test","phrase":"2b_natural_Peter_wont_eat_ANYTHING","trial_type":"audio-button-response","trial_index":37,"time_elapsed":314649,"internal_node_id":"0.0-2.0-0.13"},{"rt":12851,"stimulus":"audio/5a_demo_the_food_didnt_taste_good.mp3","response":2,"test_part":"test","phrase":"5a_demo_the_food_didnt_taste_good","trial_type":"audio-button-response","trial_index":39,"time_elapsed":328473,"internal_node_id":"0.0-2.0-0.14"},{"rt":3229,"stimulus":"audio/5a_demo_the_food_didnt_taste_good.mp3","response":1,"test_part":"test","phrase":"5a_demo_the_food_didnt_taste_good","trial_type":"audio-button-response","trial_index":40,"time_elapsed":331698,"internal_node_id":"0.0-2.0-1.14-0.14"},{"rt":6912,"stimulus":"audio/Ea_natural_We_didnt_get_one_Christmas_card.mp3","response":2,"test_part":"test","phrase":"Ea_natural_We_didnt_get_one_Christmas_card","trial_type":"audio-button-response","trial_index":42,"time_elapsed":340044,"internal_node_id":"0.0-2.0-0.15"},{"rt":3941,"stimulus":"audio/Ea_natural_We_didnt_get_one_Christmas_card.mp3","response":0,"test_part":"test","phrase":"Ea_natural_We_didnt_get_one_Christmas_card","trial_type":"audio-button-response","trial_index":43,"time_elapsed":343986,"internal_node_id":"0.0-2.0-1.15-0.15"},{"rt":3000,"stimulus":"audio/Ca_demo_Nick_doesnt_listen_to_anyone.mp3","response":0,"test_part":"test","phrase":"Ca_demo_Nick_doesnt_listen_to_anyone","trial_type":"audio-button-response","trial_index":45,"time_elapsed":348087,"internal_node_id":"0.0-2.0-0.16"},{"rt":29960,"stimulus":"audio/1b_demo_the_inbox_wasnt_FULL.mp3","response":1,"test_part":"test","phrase":"1b_demo_the_inbox_wasnt_FULL","trial_type":"audio-button-response","trial_index":47,"time_elapsed":379291,"internal_node_id":"0.0-2.0-0.17"},{"rt":2891,"stimulus":"audio/Ab_natural_Ken_didnt_feed_the_CAT.mp3","response":1,"test_part":"test","phrase":"Ab_natural_Ken_didnt_feed_the_CAT","trial_type":"audio-button-response","trial_index":49,"time_elapsed":383706,"internal_node_id":"0.0-2.0-0.18"},{"rt":2469,"stimulus":"audio/2a_natural_Peter_wont_eat_anything.mp3","response":0,"test_part":"test","phrase":"2a_natural_Peter_wont_eat_anything","trial_type":"audio-button-response","trial_index":51,"time_elapsed":387267,"internal_node_id":"0.0-2.0-0.19"},{"rt":4709,"stimulus":"audio/5b_demo_the_food_didnt_taste_GOOD.mp3","response":1,"test_part":"test","phrase":"5b_demo_the_food_didnt_taste_GOOD","trial_type":"audio-button-response","trial_index":53,"time_elapsed":393027,"internal_node_id":"0.0-2.0-0.20"},{"rt":11219,"stimulus":"audio/9b_natural_Arthur_wasnt_TIPSY.mp3","response":1,"test_part":"test","phrase":"9b_natural_Arthur_wasnt_TIPSY","trial_type":"audio-button-response","trial_index":55,"time_elapsed":405617,"internal_node_id":"0.0-2.0-0.21"},{"rt":3611,"stimulus":"audio/Ab_demo_Ken_didnt_feed_the_CAT.mp3","response":1,"test_part":"test","phrase":"Ab_demo_Ken_didnt_feed_the_CAT","trial_type":"audio-button-response","trial_index":57,"time_elapsed":410671,"internal_node_id":"0.0-2.0-0.22"},{"rt":3979,"stimulus":"audio/Eb_natural_We_didnt_get_ONE_Christmas_card.mp3","response":1,"test_part":"test","phrase":"Eb_natural_We_didnt_get_ONE_Christmas_card","trial_type":"audio-button-response","trial_index":59,"time_elapsed":415781,"internal_node_id":"0.0-2.0-0.23"},{"rt":5931,"stimulus":"audio/1a_demo_the_inbox_wasnt_full.mp3","response":0,"test_part":"test","phrase":"1a_demo_the_inbox_wasnt_full","trial_type":"audio-button-response","trial_index":61,"time_elapsed":422726,"internal_node_id":"0.0-2.0-0.24"},{"rt":16160,"stimulus":"audio/Db_demo_Mary_doesnt_LIKE_ice_cream.mp3","response":2,"test_part":"test","phrase":"Db_demo_Mary_doesnt_LIKE_ice_cream","trial_type":"audio-button-response","trial_index":63,"time_elapsed":440436,"internal_node_id":"0.0-2.0-0.25"},{"rt":3960,"stimulus":"audio/Db_demo_Mary_doesnt_LIKE_ice_cream.mp3","response":1,"test_part":"test","phrase":"Db_demo_Mary_doesnt_LIKE_ice_cream","trial_type":"audio-button-response","trial_index":64,"time_elapsed":444401,"internal_node_id":"0.0-2.0-1.25-0.25"},{"rt":4600,"stimulus":"audio/3b_natural_Susan_didnt_get_ONE_credit.mp3","response":1,"test_part":"test","phrase":"3b_natural_Susan_didnt_get_ONE_credit","trial_type":"audio-button-response","trial_index":66,"time_elapsed":450821,"internal_node_id":"0.0-2.0-0.26"},{"rt":3480,"stimulus":"audio/Eb_demo_We_didnt_get_ONE_Christmas_card.mp3","response":1,"test_part":"test","phrase":"Eb_demo_We_didnt_get_ONE_Christmas_card","trial_type":"audio-button-response","trial_index":68,"time_elapsed":455541,"internal_node_id":"0.0-2.0-0.27"},{"rt":5320,"stimulus":"audio/3a_demo_Susan_didnt_get_one_credit.mp3","response":2,"test_part":"test","phrase":"3a_demo_Susan_didnt_get_one_credit","trial_type":"audio-button-response","trial_index":70,"time_elapsed":461802,"internal_node_id":"0.0-2.0-0.28"},{"rt":3509,"stimulus":"audio/3a_demo_Susan_didnt_get_one_credit.mp3","response":0,"test_part":"test","phrase":"3a_demo_Susan_didnt_get_one_credit","trial_type":"audio-button-response","trial_index":71,"time_elapsed":465313,"internal_node_id":"0.0-2.0-1.28-0.28"},{"rt":3760,"stimulus":"audio/4a_natural_Thomas_didnt_see_Patrick.mp3","response":0,"test_part":"test","phrase":"4a_natural_Thomas_didnt_see_Patrick","trial_type":"audio-button-response","trial_index":73,"time_elapsed":470108,"internal_node_id":"0.0-2.0-0.29"},{"rt":3051,"stimulus":"audio/2b_demo_Peter_wont_eat_ANYTHING.mp3","response":1,"test_part":"test","phrase":"2b_demo_Peter_wont_eat_ANYTHING","trial_type":"audio-button-response","trial_index":75,"time_elapsed":474041,"internal_node_id":"0.0-2.0-0.30"},{"rt":7901,"stimulus":"audio/1b_natural_the_inbox_wasnt_FULL.mp3","response":1,"test_part":"test","phrase":"1b_natural_the_inbox_wasnt_FULL","trial_type":"audio-button-response","trial_index":77,"time_elapsed":483046,"internal_node_id":"0.0-2.0-0.31"},{"rt":2992,"stimulus":"audio/3a_natural_Susan_didnt_get_one_credit.mp3","response":0,"test_part":"test","phrase":"3a_natural_Susan_didnt_get_one_credit","trial_type":"audio-button-response","trial_index":79,"time_elapsed":487164,"internal_node_id":"0.0-2.0-0.32"},{"rt":14160,"stimulus":"audio/Aa_demo_Ken_didnt_feed_the_cat.mp3","response":2,"test_part":"test","phrase":"Aa_demo_Ken_didnt_feed_the_cat","trial_type":"audio-button-response","trial_index":81,"time_elapsed":502696,"internal_node_id":"0.0-2.0-0.33"},{"rt":2811,"stimulus":"audio/Aa_demo_Ken_didnt_feed_the_cat.mp3","response":1,"test_part":"test","phrase":"Aa_demo_Ken_didnt_feed_the_cat","trial_type":"audio-button-response","trial_index":82,"time_elapsed":505513,"internal_node_id":"0.0-2.0-1.33-0.33"},{"rt":2640,"stimulus":"audio/9b_demo_Arthur_wasnt_TIPSY.mp3","response":1,"test_part":"test","phrase":"9b_demo_Arthur_wasnt_TIPSY","trial_type":"audio-button-response","trial_index":84,"time_elapsed":509037,"internal_node_id":"0.0-2.0-0.34"},{"rt":3088,"stimulus":"audio/4b_demo_Thomas_didnt_see_PATRICK.mp3","response":1,"test_part":"test","phrase":"4b_demo_Thomas_didnt_see_PATRICK","trial_type":"audio-button-response","trial_index":86,"time_elapsed":513260,"internal_node_id":"0.0-2.0-0.35"},{"rt":5280,"stimulus":"audio/2a_demo_Peter_wont_eat_anything.mp3","response":2,"test_part":"test","phrase":"2a_demo_Peter_wont_eat_anything","trial_type":"audio-button-response","trial_index":88,"time_elapsed":519827,"internal_node_id":"0.0-2.0-0.36"},{"rt":2909,"stimulus":"audio/2a_demo_Peter_wont_eat_anything.mp3","response":0,"test_part":"test","phrase":"2a_demo_Peter_wont_eat_anything","trial_type":"audio-button-response","trial_index":89,"time_elapsed":522741,"internal_node_id":"0.0-2.0-1.36-0.36"},{"rt":7451,"stimulus":"audio/Db_natural_Mary_doesnt_LIKE_ice_cream.mp3","response":1,"test_part":"test","phrase":"Db_natural_Mary_doesnt_LIKE_ice_cream","trial_type":"audio-button-response","trial_index":91,"time_elapsed":531042,"internal_node_id":"0.0-2.0-0.37"},{"rt":3640,"stimulus":"audio/4b_natural_Thomas_didnt_see_PATRICK.mp3","response":1,"test_part":"test","phrase":"4b_natural_Thomas_didnt_see_PATRICK","trial_type":"audio-button-response","trial_index":93,"time_elapsed":536225,"internal_node_id":"0.0-2.0-0.38"},{"rt":6069,"stimulus":"audio/Da_natural_Mary_doesnt_like_ice_cream.mp3","response":0,"test_part":"test","phrase":"Da_natural_Mary_doesnt_like_ice_cream","trial_type":"audio-button-response","trial_index":95,"time_elapsed":543209,"internal_node_id":"0.0-2.0-0.39"}]