[{"rt":5869,"stimulus":"audio/Ab_natural_Ken_didnt_feed_the_CAT.mp3","response":2,"test_part":"test","phrase":"Ab_natural_Ken_didnt_feed_the_CAT","trial_type":"audio-button-response","trial_index":2,"time_elapsed":18272,"internal_node_id":"0.0-2.0-0.0"},{"rt":12869,"stimulus":"audio/Ab_natural_Ken_didnt_feed_the_CAT.mp3","response":0,"test_part":"test","phrase":"Ab_natural_Ken_didnt_feed_the_CAT","trial_type":"audio-button-response","trial_index":3,"time_elapsed":31140,"internal_node_id":"0.0-2.0-1.0-0.0"},{"rt":4109,"stimulus":"audio/Db_natural_Mary_doesnt_LIKE_ice_cream.mp3","response":2,"test_part":"test","phrase":"Db_natural_Mary_doesnt_LIKE_ice_cream","trial_type":"audio-button-response","trial_index":5,"time_elapsed":38386,"internal_node_id":"0.0-2.0-0.1"},{"rt":3091,"stimulus":"audio/Db_natural_Mary_doesnt_LIKE_ice_cream.mp3","response":0,"test_part":"test","phrase":"Db_natural_Mary_doesnt_LIKE_ice_cream","trial_type":"audio-button-response","trial_index":6,"time_elapsed":41481,"internal_node_id":"0.0-2.0-1.1-0.1"},{"rt":4989,"stimulus":"audio/9b_demo_Arthur_wasnt_TIPSY.mp3","response":2,"test_part":"test","phrase":"9b_demo_Arthur_wasnt_TIPSY","trial_type":"audio-button-response","trial_index":8,"time_elapsed":49989,"internal_node_id":"0.0-2.0-0.2"},{"rt":7651,"stimulus":"audio/9b_demo_Arthur_wasnt_TIPSY.mp3","response":1,"test_part":"test","phrase":"9b_demo_Arthur_wasnt_TIPSY","trial_type":"audio-button-response","trial_index":9,"time_elapsed":57638,"internal_node_id":"0.0-2.0-1.2-0.2"},{"rt":8341,"stimulus":"audio/Da_natural_Mary_doesnt_like_ice_cream.mp3","response":2,"test_part":"test","phrase":"Da_natural_Mary_doesnt_like_ice_cream","trial_type":"audio-button-response","trial_index":11,"time_elapsed":68193,"internal_node_id":"0.0-2.0-0.3"},{"rt":4539,"stimulus":"audio/Da_natural_Mary_doesnt_like_ice_cream.mp3","response":1,"test_part":"test","phrase":"Da_natural_Mary_doesnt_like_ice_cream","trial_type":"audio-button-response","trial_index":12,"time_elapsed":72738,"internal_node_id":"0.0-2.0-1.3-0.3"},{"rt":3800,"stimulus":"audio/2b_demo_Peter_wont_eat_ANYTHING.mp3","response":2,"test_part":"test","phrase":"2b_demo_Peter_wont_eat_ANYTHING","trial_type":"audio-button-response","trial_index":14,"time_elapsed":78426,"internal_node_id":"0.0-2.0-0.4"},{"rt":12499,"stimulus":"audio/2b_demo_Peter_wont_eat_ANYTHING.mp3","response":0,"test_part":"test","phrase":"2b_demo_Peter_wont_eat_ANYTHING","trial_type":"audio-button-response","trial_index":15,"time_elapsed":90923,"internal_node_id":"0.0-2.0-1.4-0.4"},{"rt":4539,"stimulus":"audio/4b_demo_Thomas_didnt_see_PATRICK.mp3","response":2,"test_part":"test","phrase":"4b_demo_Thomas_didnt_see_PATRICK","trial_type":"audio-button-response","trial_index":17,"time_elapsed":97823,"internal_node_id":"0.0-2.0-0.5"},{"rt":9560,"stimulus":"audio/4b_demo_Thomas_didnt_see_PATRICK.mp3","response":0,"test_part":"test","phrase":"4b_demo_Thomas_didnt_see_PATRICK","trial_type":"audio-button-response","trial_index":18,"time_elapsed":107376,"internal_node_id":"0.0-2.0-1.5-0.5"},{"rt":3448,"stimulus":"audio/9b_natural_Arthur_wasnt_TIPSY.mp3","response":0,"test_part":"test","phrase":"9b_natural_Arthur_wasnt_TIPSY","trial_type":"audio-button-response","trial_index":20,"time_elapsed":112409,"internal_node_id":"0.0-2.0-0.6"},{"rt":4059,"stimulus":"audio/3a_demo_Susan_didnt_get_one_credit.mp3","response":2,"test_part":"test","phrase":"3a_demo_Susan_didnt_get_one_credit","trial_type":"audio-button-response","trial_index":22,"time_elapsed":118176,"internal_node_id":"0.0-2.0-0.7"},{"rt":3141,"stimulus":"audio/3a_demo_Susan_didnt_get_one_credit.mp3","response":0,"test_part":"test","phrase":"3a_demo_Susan_didnt_get_one_credit","trial_type":"audio-button-response","trial_index":23,"time_elapsed":121318,"internal_node_id":"0.0-2.0-1.7-0.7"},{"rt":5061,"stimulus":"audio/Aa_natural_Ken_didnt_feed_the_cat.mp3","response":2,"test_part":"test","phrase":"Aa_natural_Ken_didnt_feed_the_cat","trial_type":"audio-button-response","trial_index":25,"time_elapsed":128197,"internal_node_id":"0.0-2.0-0.8"},{"rt":11240,"stimulus":"audio/Aa_natural_Ken_didnt_feed_the_cat.mp3","response":0,"test_part":"test","phrase":"Aa_natural_Ken_didnt_feed_the_cat","trial_type":"audio-button-response","trial_index":26,"time_elapsed":139440,"internal_node_id":"0.0-2.0-1.8-0.8"},{"rt":3360,"stimulus":"audio/2a_demo_Peter_wont_eat_anything.mp3","response":0,"test_part":"test","phrase":"2a_demo_Peter_wont_eat_anything","trial_type":"audio-button-response","trial_index":28,"time_elapsed":144374,"internal_node_id":"0.0-2.0-0.9"},{"rt":3741,"stimulus":"audio/3b_demo_Susan_didnt_get_ONE_credit.mp3","response":1,"test_part":"test","phrase":"3b_demo_Susan_didnt_get_ONE_credit","trial_type":"audio-button-response","trial_index":30,"time_elapsed":149943,"internal_node_id":"0.0-2.0-0.10"},{"rt":3189,"stimulus":"audio/9a_natural_Arthur_wasnt_tipsy.mp3","response":0,"test_part":"test","phrase":"9a_natural_Arthur_wasnt_tipsy","trial_type":"audio-button-response","trial_index":32,"time_elapsed":154978,"internal_node_id":"0.0-2.0-0.11"},{"rt":3149,"stimulus":"audio/4a_natural_Thomas_didnt_see_Patrick.mp3","response":0,"test_part":"test","phrase":"4a_natural_Thomas_didnt_see_Patrick","trial_type":"audio-button-response","trial_index":34,"time_elapsed":159570,"internal_node_id":"0.0-2.0-0.12"},{"rt":3501,"stimulus":"audio/3a_natural_Susan_didnt_get_one_credit.mp3","response":0,"test_part":"test","phrase":"3a_natural_Susan_didnt_get_one_credit","trial_type":"audio-button-response","trial_index":36,"time_elapsed":164441,"internal_node_id":"0.0-2.0-0.13"},{"rt":3320,"stimulus":"audio/5a_natural_the_food_didnt_taste_good.mp3","response":2,"test_part":"test","phrase":"5a_natural_the_food_didnt_taste_good","trial_type":"audio-button-response","trial_index":38,"time_elapsed":169154,"internal_node_id":"0.0-2.0-0.14"},{"rt":2280,"stimulus":"audio/5a_natural_the_food_didnt_taste_good.mp3","response":0,"test_part":"test","phrase":"5a_natural_the_food_didnt_taste_good","trial_type":"audio-button-response","trial_index":39,"time_elapsed":171432,"internal_node_id":"0.0-2.0-1.14-0.14"},{"rt":4440,"stimulus":"audio/Ea_demo_We_didnt_get_one_Christmas_card.mp3","response":1,"test_part":"test","phrase":"Ea_demo_We_didnt_get_one_Christmas_card","trial_type":"audio-button-response","trial_index":41,"time_elapsed":177546,"internal_node_id":"0.0-2.0-0.15"},{"rt":3651,"stimulus":"audio/Ca_demo_Nick_doesnt_listen_to_anyone.mp3","response":2,"test_part":"test","phrase":"Ca_demo_Nick_doesnt_listen_to_anyone","trial_type":"audio-button-response","trial_index":43,"time_elapsed":183257,"internal_node_id":"0.0-2.0-0.16"},{"rt":3680,"stimulus":"audio/Ca_demo_Nick_doesnt_listen_to_anyone.mp3","response":0,"test_part":"test","phrase":"Ca_demo_Nick_doesnt_listen_to_anyone","trial_type":"audio-button-response","trial_index":44,"time_elapsed":186940,"internal_node_id":"0.0-2.0-1.16-0.16"},{"rt":5592,"stimulus":"audio/Eb_demo_We_didnt_get_ONE_Christmas_card.mp3","response":2,"test_part":"test","phrase":"Eb_demo_We_didnt_get_ONE_Christmas_card","trial_type":"audio-button-response","trial_index":46,"time_elapsed":194317,"internal_node_id":"0.0-2.0-0.17"},{"rt":2949,"stimulus":"audio/Eb_demo_We_didnt_get_ONE_Christmas_card.mp3","response":1,"test_part":"test","phrase":"Eb_demo_We_didnt_get_ONE_Christmas_card","trial_type":"audio-button-response","trial_index":47,"time_elapsed":197266,"internal_node_id":"0.0-2.0-1.17-0.17"},{"rt":4059,"stimulus":"audio/5a_demo_the_food_didnt_taste_good.mp3","response":2,"test_part":"test","phrase":"5a_demo_the_food_didnt_taste_good","trial_type":"audio-button-response","trial_index":49,"time_elapsed":203003,"internal_node_id":"0.0-2.0-0.18"},{"rt":3272,"stimulus":"audio/5a_demo_the_food_didnt_taste_good.mp3","response":0,"test_part":"test","phrase":"5a_demo_the_food_didnt_taste_good","trial_type":"audio-button-response","trial_index":50,"time_elapsed":206272,"internal_node_id":"0.0-2.0-1.18-0.18"},{"rt":4920,"stimulus":"audio/Cb_demo_Nick_doesnt_listen_to_ANYONE.mp3","response":1,"test_part":"test","phrase":"Cb_demo_Nick_doesnt_listen_to_ANYONE","trial_type":"audio-button-response","trial_index":52,"time_elapsed":212699,"internal_node_id":"0.0-2.0-0.19"},{"rt":2629,"stimulus":"audio/2a_natural_Peter_wont_eat_anything.mp3","response":0,"test_part":"test","phrase":"2a_natural_Peter_wont_eat_anything","trial_type":"audio-button-response","trial_index":54,"time_elapsed":216894,"internal_node_id":"0.0-2.0-0.20"},{"rt":3360,"stimulus":"audio/Eb_natural_We_didnt_get_ONE_Christmas_card.mp3","response":0,"test_part":"test","phrase":"Eb_natural_We_didnt_get_ONE_Christmas_card","trial_type":"audio-button-response","trial_index":56,"time_elapsed":221522,"internal_node_id":"0.0-2.0-0.21"},{"rt":5432,"stimulus":"audio/4b_natural_Thomas_didnt_see_PATRICK.mp3","response":0,"test_part":"test","phrase":"4b_natural_Thomas_didnt_see_PATRICK","trial_type":"audio-button-response","trial_index":58,"time_elapsed":228401,"internal_node_id":"0.0-2.0-0.22"},{"rt":3600,"stimulus":"audio/Ea_natural_We_didnt_get_one_Christmas_card.mp3","response":0,"test_part":"test","phrase":"Ea_natural_We_didnt_get_one_Christmas_card","trial_type":"audio-button-response","trial_index":60,"time_elapsed":233448,"internal_node_id":"0.0-2.0-0.23"},{"rt":4552,"stimulus":"audio/2b_natural_Peter_wont_eat_ANYTHING.mp3","response":0,"test_part":"test","phrase":"2b_natural_Peter_wont_eat_ANYTHING","trial_type":"audio-button-response","trial_index":62,"time_elapsed":239436,"internal_node_id":"0.0-2.0-0.24"},{"rt":2480,"stimulus":"audio/1b_natural_the_inbox_wasnt_FULL.mp3","response":2,"test_part":"test","phrase":"1b_natural_the_inbox_wasnt_FULL","trial_type":"audio-button-response","trial_index":64,"time_elapsed":243134,"internal_node_id":"0.0-2.0-0.25"},{"rt":4680,"stimulus":"audio/1b_natural_the_inbox_wasnt_FULL.mp3","response":0,"test_part":"test","phrase":"1b_natural_the_inbox_wasnt_FULL","trial_type":"audio-button-response","trial_index":65,"time_elapsed":247817,"internal_node_id":"0.0-2.0-1.25-0.25"},{"rt":3221,"stimulus":"audio/Ab_demo_Ken_didnt_feed_the_CAT.mp3","response":1,"test_part":"test","phrase":"Ab_demo_Ken_didnt_feed_the_CAT","trial_type":"audio-button-response","trial_index":67,"time_elapsed":252709,"internal_node_id":"0.0-2.0-0.26"},{"rt":2901,"stimulus":"audio/5b_natural_the_food_didnt_taste_GOOD.mp3","response":1,"test_part":"test","phrase":"5b_natural_the_food_didnt_taste_GOOD","trial_type":"audio-button-response","trial_index":69,"time_elapsed":257303,"internal_node_id":"0.0-2.0-0.27"},{"rt":2941,"stimulus":"audio/1b_demo_the_inbox_wasnt_FULL.mp3","response":1,"test_part":"test","phrase":"1b_demo_the_inbox_wasnt_FULL","trial_type":"audio-button-response","trial_index":71,"time_elapsed":261346,"internal_node_id":"0.0-2.0-0.28"},{"rt":3880,"stimulus":"audio/Da_demo_Mary_doesnt_like_ice_cream.mp3","response":2,"test_part":"test","phrase":"Da_demo_Mary_doesnt_like_ice_cream","trial_type":"audio-button-response","trial_index":73,"time_elapsed":266373,"internal_node_id":"0.0-2.0-0.29"},{"rt":4120,"stimulus":"audio/Da_demo_Mary_doesnt_like_ice_cream.mp3","response":0,"test_part":"test","phrase":"Da_demo_Mary_doesnt_like_ice_cream","trial_type":"audio-button-response","trial_index":74,"time_elapsed":270498,"internal_node_id":"0.0-2.0-1.29-0.29"},{"rt":2400,"stimulus":"audio/1a_natural_the_inbox_wasnt_full.mp3","response":0,"test_part":"test","phrase":"1a_natural_the_inbox_wasnt_full","trial_type":"audio-button-response","trial_index":76,"time_elapsed":274497,"internal_node_id":"0.0-2.0-0.30"},{"rt":4949,"stimulus":"audio/9a_demo_Arthur_wasnt_tipsy.mp3","response":2,"test_part":"test","phrase":"9a_demo_Arthur_wasnt_tipsy","trial_type":"audio-button-response","trial_index":78,"time_elapsed":280744,"internal_node_id":"0.0-2.0-0.31"},{"rt":2971,"stimulus":"audio/9a_demo_Arthur_wasnt_tipsy.mp3","response":1,"test_part":"test","phrase":"9a_demo_Arthur_wasnt_tipsy","trial_type":"audio-button-response","trial_index":79,"time_elapsed":283719,"internal_node_id":"0.0-2.0-1.31-0.31"},{"rt":3800,"stimulus":"audio/1a_demo_the_inbox_wasnt_full.mp3","response":1,"test_part":"test","phrase":"1a_demo_the_inbox_wasnt_full","trial_type":"audio-button-response","trial_index":81,"time_elapsed":288807,"internal_node_id":"0.0-2.0-0.32"},{"rt":2808,"stimulus":"audio/Aa_demo_Ken_didnt_feed_the_cat.mp3","response":0,"test_part":"test","phrase":"Aa_demo_Ken_didnt_feed_the_cat","trial_type":"audio-button-response","trial_index":83,"time_elapsed":292769,"internal_node_id":"0.0-2.0-0.33"},{"rt":2768,"stimulus":"audio/Ca_natural_Nick_doesnt_listen_to_anyone.mp3","response":0,"test_part":"test","phrase":"Ca_natural_Nick_doesnt_listen_to_anyone","trial_type":"audio-button-response","trial_index":85,"time_elapsed":296604,"internal_node_id":"0.0-2.0-0.34"},{"rt":3771,"stimulus":"audio/Db_demo_Mary_doesnt_LIKE_ice_cream.mp3","response":1,"test_part":"test","phrase":"Db_demo_Mary_doesnt_LIKE_ice_cream","trial_type":"audio-button-response","trial_index":87,"time_elapsed":301132,"internal_node_id":"0.0-2.0-0.35"},{"rt":3221,"stimulus":"audio/Cb_natural_Nick_doesnt_listen_to_ANYONE.mp3","response":0,"test_part":"test","phrase":"Cb_natural_Nick_doesnt_listen_to_ANYONE","trial_type":"audio-button-response","trial_index":89,"time_elapsed":305222,"internal_node_id":"0.0-2.0-0.36"},{"rt":3211,"stimulus":"audio/4a_demo_Thomas_didnt_see_Patrick.mp3","response":0,"test_part":"test","phrase":"4a_demo_Thomas_didnt_see_Patrick","trial_type":"audio-button-response","trial_index":91,"time_elapsed":309426,"internal_node_id":"0.0-2.0-0.37"},{"rt":3872,"stimulus":"audio/5b_demo_the_food_didnt_taste_GOOD.mp3","response":1,"test_part":"test","phrase":"5b_demo_the_food_didnt_taste_GOOD","trial_type":"audio-button-response","trial_index":93,"time_elapsed":314437,"internal_node_id":"0.0-2.0-0.38"},{"rt":2821,"stimulus":"audio/3b_natural_Susan_didnt_get_ONE_credit.mp3","response":0,"test_part":"test","phrase":"3b_natural_Susan_didnt_get_ONE_credit","trial_type":"audio-button-response","trial_index":95,"time_elapsed":318623,"internal_node_id":"0.0-2.0-0.39"}]