[{"rt":6451,"stimulus":"audio/9b_natural_Arthur_wasnt_TIPSY.mp3","response":2,"test_part":"test","phrase":"9b_natural_Arthur_wasnt_TIPSY","trial_type":"audio-button-response","trial_index":2,"time_elapsed":10474,"internal_node_id":"0.0-2.0-0.0"},{"rt":15491,"stimulus":"audio/9b_natural_Arthur_wasnt_TIPSY.mp3","response":0,"test_part":"test","phrase":"9b_natural_Arthur_wasnt_TIPSY","trial_type":"audio-button-response","trial_index":3,"time_elapsed":25960,"internal_node_id":"0.0-2.0-1.0-0.0"},{"rt":6248,"stimulus":"audio/1a_demo_the_inbox_wasnt_full.mp3","response":2,"test_part":"test","phrase":"1a_demo_the_inbox_wasnt_full","trial_type":"audio-button-response","trial_index":5,"time_elapsed":33976,"internal_node_id":"0.0-2.0-0.1"},{"rt":8301,"stimulus":"audio/1a_demo_the_inbox_wasnt_full.mp3","response":0,"test_part":"test","phrase":"1a_demo_the_inbox_wasnt_full","trial_type":"audio-button-response","trial_index":6,"time_elapsed":42273,"internal_node_id":"0.0-2.0-1.1-0.1"},{"rt":5501,"stimulus":"audio/9a_demo_Arthur_wasnt_tipsy.mp3","response":1,"test_part":"test","phrase":"9a_demo_Arthur_wasnt_tipsy","trial_type":"audio-button-response","trial_index":8,"time_elapsed":49511,"internal_node_id":"0.0-2.0-0.2"},{"rt":7792,"stimulus":"audio/Eb_demo_We_didnt_get_ONE_Christmas_card.mp3","response":1,"test_part":"test","phrase":"Eb_demo_We_didnt_get_ONE_Christmas_card","trial_type":"audio-button-response","trial_index":10,"time_elapsed":59039,"internal_node_id":"0.0-2.0-0.3"},{"rt":8011,"stimulus":"audio/4a_demo_Thomas_didnt_see_Patrick.mp3","response":2,"test_part":"test","phrase":"4a_demo_Thomas_didnt_see_Patrick","trial_type":"audio-button-response","trial_index":12,"time_elapsed":68543,"internal_node_id":"0.0-2.0-0.4"},{"rt":5211,"stimulus":"audio/4a_demo_Thomas_didnt_see_Patrick.mp3","response":0,"test_part":"test","phrase":"4a_demo_Thomas_didnt_see_Patrick","trial_type":"audio-button-response","trial_index":13,"time_elapsed":73751,"internal_node_id":"0.0-2.0-1.4-0.4"},{"rt":5240,"stimulus":"audio/2a_natural_Peter_wont_eat_anything.mp3","response":0,"test_part":"test","phrase":"2a_natural_Peter_wont_eat_anything","trial_type":"audio-button-response","trial_index":15,"time_elapsed":81031,"internal_node_id":"0.0-2.0-0.5"},{"rt":3979,"stimulus":"audio/4b_demo_Thomas_didnt_see_PATRICK.mp3","response":1,"test_part":"test","phrase":"4b_demo_Thomas_didnt_see_PATRICK","trial_type":"audio-button-response","trial_index":17,"time_elapsed":86983,"internal_node_id":"0.0-2.0-0.6"},{"rt":11152,"stimulus":"audio/1b_demo_the_inbox_wasnt_FULL.mp3","response":2,"test_part":"test","phrase":"1b_demo_the_inbox_wasnt_FULL","trial_type":"audio-button-response","trial_index":19,"time_elapsed":99726,"internal_node_id":"0.0-2.0-0.7"},{"rt":3440,"stimulus":"audio/1b_demo_the_inbox_wasnt_FULL.mp3","response":0,"test_part":"test","phrase":"1b_demo_the_inbox_wasnt_FULL","trial_type":"audio-button-response","trial_index":20,"time_elapsed":103158,"internal_node_id":"0.0-2.0-1.7-0.7"},{"rt":5840,"stimulus":"audio/Eb_natural_We_didnt_get_ONE_Christmas_card.mp3","response":0,"test_part":"test","phrase":"Eb_natural_We_didnt_get_ONE_Christmas_card","trial_type":"audio-button-response","trial_index":22,"time_elapsed":110134,"internal_node_id":"0.0-2.0-0.8"},{"rt":8832,"stimulus":"audio/1a_natural_the_inbox_wasnt_full.mp3","response":0,"test_part":"test","phrase":"1a_natural_the_inbox_wasnt_full","trial_type":"audio-button-response","trial_index":24,"time_elapsed":120197,"internal_node_id":"0.0-2.0-0.9"},{"rt":5251,"stimulus":"audio/5a_demo_the_food_didnt_taste_good.mp3","response":0,"test_part":"test","phrase":"5a_demo_the_food_didnt_taste_good","trial_type":"audio-button-response","trial_index":26,"time_elapsed":127165,"internal_node_id":"0.0-2.0-0.10"},{"rt":4451,"stimulus":"audio/Da_demo_Mary_doesnt_like_ice_cream.mp3","response":0,"test_part":"test","phrase":"Da_demo_Mary_doesnt_like_ice_cream","trial_type":"audio-button-response","trial_index":28,"time_elapsed":132996,"internal_node_id":"0.0-2.0-0.11"},{"rt":4691,"stimulus":"audio/2a_demo_Peter_wont_eat_anything.mp3","response":1,"test_part":"test","phrase":"2a_demo_Peter_wont_eat_anything","trial_type":"audio-button-response","trial_index":30,"time_elapsed":139156,"internal_node_id":"0.0-2.0-0.12"},{"rt":4512,"stimulus":"audio/Ab_demo_Ken_didnt_feed_the_CAT.mp3","response":0,"test_part":"test","phrase":"Ab_demo_Ken_didnt_feed_the_CAT","trial_type":"audio-button-response","trial_index":32,"time_elapsed":144884,"internal_node_id":"0.0-2.0-0.13"},{"rt":5269,"stimulus":"audio/9b_demo_Arthur_wasnt_TIPSY.mp3","response":1,"test_part":"test","phrase":"9b_demo_Arthur_wasnt_TIPSY","trial_type":"audio-button-response","trial_index":34,"time_elapsed":151501,"internal_node_id":"0.0-2.0-0.14"},{"rt":2891,"stimulus":"audio/4a_natural_Thomas_didnt_see_Patrick.mp3","response":0,"test_part":"test","phrase":"4a_natural_Thomas_didnt_see_Patrick","trial_type":"audio-button-response","trial_index":36,"time_elapsed":155404,"internal_node_id":"0.0-2.0-0.15"},{"rt":2789,"stimulus":"audio/9a_natural_Arthur_wasnt_tipsy.mp3","response":1,"test_part":"test","phrase":"9a_natural_Arthur_wasnt_tipsy","trial_type":"audio-button-response","trial_index":38,"time_elapsed":159300,"internal_node_id":"0.0-2.0-0.16"},{"rt":4600,"stimulus":"audio/Ea_demo_We_didnt_get_one_Christmas_card.mp3","response":1,"test_part":"test","phrase":"Ea_demo_We_didnt_get_one_Christmas_card","trial_type":"audio-button-response","trial_index":40,"time_elapsed":164707,"internal_node_id":"0.0-2.0-0.17"},{"rt":4560,"stimulus":"audio/Ca_natural_Nick_doesnt_listen_to_anyone.mp3","response":0,"test_part":"test","phrase":"Ca_natural_Nick_doesnt_listen_to_anyone","trial_type":"audio-button-response","trial_index":42,"time_elapsed":170595,"internal_node_id":"0.0-2.0-0.18"},{"rt":3779,"stimulus":"audio/3b_demo_Susan_didnt_get_ONE_credit.mp3","response":0,"test_part":"test","phrase":"3b_demo_Susan_didnt_get_ONE_credit","trial_type":"audio-button-response","trial_index":44,"time_elapsed":175252,"internal_node_id":"0.0-2.0-0.19"},{"rt":4189,"stimulus":"audio/5a_natural_the_food_didnt_taste_good.mp3","response":0,"test_part":"test","phrase":"5a_natural_the_food_didnt_taste_good","trial_type":"audio-button-response","trial_index":46,"time_elapsed":180739,"internal_node_id":"0.0-2.0-0.20"},{"rt":6029,"stimulus":"audio/3a_natural_Susan_didnt_get_one_credit.mp3","response":0,"test_part":"test","phrase":"3a_natural_Susan_didnt_get_one_credit","trial_type":"audio-button-response","trial_index":48,"time_elapsed":188899,"internal_node_id":"0.0-2.0-0.21"},{"rt":3152,"stimulus":"audio/Ea_natural_We_didnt_get_one_Christmas_card.mp3","response":1,"test_part":"test","phrase":"Ea_natural_We_didnt_get_one_Christmas_card","trial_type":"audio-button-response","trial_index":50,"time_elapsed":192954,"internal_node_id":"0.0-2.0-0.22"},{"rt":2629,"stimulus":"audio/Aa_demo_Ken_didnt_feed_the_cat.mp3","response":1,"test_part":"test","phrase":"Aa_demo_Ken_didnt_feed_the_cat","trial_type":"audio-button-response","trial_index":52,"time_elapsed":196410,"internal_node_id":"0.0-2.0-0.23"},{"rt":5560,"stimulus":"audio/5b_demo_the_food_didnt_taste_GOOD.mp3","response":0,"test_part":"test","phrase":"5b_demo_the_food_didnt_taste_GOOD","trial_type":"audio-button-response","trial_index":54,"time_elapsed":202834,"internal_node_id":"0.0-2.0-0.24"},{"rt":8171,"stimulus":"audio/Da_natural_Mary_doesnt_like_ice_cream.mp3","response":0,"test_part":"test","phrase":"Da_natural_Mary_doesnt_like_ice_cream","trial_type":"audio-button-response","trial_index":56,"time_elapsed":212067,"internal_node_id":"0.0-2.0-0.25"},{"rt":2520,"stimulus":"audio/2b_natural_Peter_wont_eat_ANYTHING.mp3","response":1,"test_part":"test","phrase":"2b_natural_Peter_wont_eat_ANYTHING","trial_type":"audio-button-response","trial_index":58,"time_elapsed":215570,"internal_node_id":"0.0-2.0-0.26"},{"rt":3512,"stimulus":"audio/3b_natural_Susan_didnt_get_ONE_credit.mp3","response":1,"test_part":"test","phrase":"3b_natural_Susan_didnt_get_ONE_credit","trial_type":"audio-button-response","trial_index":60,"time_elapsed":220042,"internal_node_id":"0.0-2.0-0.27"},{"rt":3032,"stimulus":"audio/2b_demo_Peter_wont_eat_ANYTHING.mp3","response":0,"test_part":"test","phrase":"2b_demo_Peter_wont_eat_ANYTHING","trial_type":"audio-button-response","trial_index":62,"time_elapsed":223834,"internal_node_id":"0.0-2.0-0.28"},{"rt":4011,"stimulus":"audio/Ab_natural_Ken_didnt_feed_the_CAT.mp3","response":0,"test_part":"test","phrase":"Ab_natural_Ken_didnt_feed_the_CAT","trial_type":"audio-button-response","trial_index":64,"time_elapsed":228753,"internal_node_id":"0.0-2.0-0.29"},{"rt":5072,"stimulus":"audio/4b_natural_Thomas_didnt_see_PATRICK.mp3","response":1,"test_part":"test","phrase":"4b_natural_Thomas_didnt_see_PATRICK","trial_type":"audio-button-response","trial_index":66,"time_elapsed":235402,"internal_node_id":"0.0-2.0-0.30"},{"rt":4280,"stimulus":"audio/3a_demo_Susan_didnt_get_one_credit.mp3","response":1,"test_part":"test","phrase":"3a_demo_Susan_didnt_get_one_credit","trial_type":"audio-button-response","trial_index":68,"time_elapsed":241065,"internal_node_id":"0.0-2.0-0.31"},{"rt":5432,"stimulus":"audio/Ca_demo_Nick_doesnt_listen_to_anyone.mp3","response":1,"test_part":"test","phrase":"Ca_demo_Nick_doesnt_listen_to_anyone","trial_type":"audio-button-response","trial_index":70,"time_elapsed":247153,"internal_node_id":"0.0-2.0-0.32"},{"rt":4920,"stimulus":"audio/Aa_natural_Ken_didnt_feed_the_cat.mp3","response":2,"test_part":"test","phrase":"Aa_natural_Ken_didnt_feed_the_cat","trial_type":"audio-button-response","trial_index":72,"time_elapsed":253561,"internal_node_id":"0.0-2.0-0.33"},{"rt":3960,"stimulus":"audio/Aa_natural_Ken_didnt_feed_the_cat.mp3","response":1,"test_part":"test","phrase":"Aa_natural_Ken_didnt_feed_the_cat","trial_type":"audio-button-response","trial_index":73,"time_elapsed":257512,"internal_node_id":"0.0-2.0-1.33-0.33"},{"rt":5360,"stimulus":"audio/1b_natural_the_inbox_wasnt_FULL.mp3","response":0,"test_part":"test","phrase":"1b_natural_the_inbox_wasnt_FULL","trial_type":"audio-button-response","trial_index":75,"time_elapsed":264193,"internal_node_id":"0.0-2.0-0.34"},{"rt":4000,"stimulus":"audio/Db_demo_Mary_doesnt_LIKE_ice_cream.mp3","response":0,"test_part":"test","phrase":"Db_demo_Mary_doesnt_LIKE_ice_cream","trial_type":"audio-button-response","trial_index":77,"time_elapsed":270368,"internal_node_id":"0.0-2.0-0.35"},{"rt":2851,"stimulus":"audio/Cb_demo_Nick_doesnt_listen_to_ANYONE.mp3","response":0,"test_part":"test","phrase":"Cb_demo_Nick_doesnt_listen_to_ANYONE","trial_type":"audio-button-response","trial_index":79,"time_elapsed":273896,"internal_node_id":"0.0-2.0-0.36"},{"rt":2480,"stimulus":"audio/5b_natural_the_food_didnt_taste_GOOD.mp3","response":0,"test_part":"test","phrase":"5b_natural_the_food_didnt_taste_GOOD","trial_type":"audio-button-response","trial_index":81,"time_elapsed":277200,"internal_node_id":"0.0-2.0-0.37"},{"rt":8568,"stimulus":"audio/Db_natural_Mary_doesnt_LIKE_ice_cream.mp3","response":0,"test_part":"test","phrase":"Db_natural_Mary_doesnt_LIKE_ice_cream","trial_type":"audio-button-response","trial_index":83,"time_elapsed":286528,"internal_node_id":"0.0-2.0-0.38"},{"rt":2112,"stimulus":"audio/Cb_natural_Nick_doesnt_listen_to_ANYONE.mp3","response":0,"test_part":"test","phrase":"Cb_natural_Nick_doesnt_listen_to_ANYONE","trial_type":"audio-button-response","trial_index":85,"time_elapsed":290111,"internal_node_id":"0.0-2.0-0.39"}]