[{"rt":7555,"stimulus":"audio/3a_demo_Susan_didnt_get_one_credit.mp3","response":1,"test_part":"test","phrase":"3a_demo_Susan_didnt_get_one_credit","trial_type":"audio-button-response","trial_index":2,"time_elapsed":11534,"internal_node_id":"0.0-2.0-0.0"},{"rt":4098,"stimulus":"audio/Db_demo_Mary_doesnt_LIKE_ice_cream.mp3","response":1,"test_part":"test","phrase":"Db_demo_Mary_doesnt_LIKE_ice_cream","trial_type":"audio-button-response","trial_index":4,"time_elapsed":18583,"internal_node_id":"0.0-2.0-0.1"},{"rt":8025,"stimulus":"audio/3b_demo_Susan_didnt_get_ONE_credit.mp3","response":1,"test_part":"test","phrase":"3b_demo_Susan_didnt_get_ONE_credit","trial_type":"audio-button-response","trial_index":6,"time_elapsed":28112,"internal_node_id":"0.0-2.0-0.2"},{"rt":4223,"stimulus":"audio/9b_natural_Arthur_wasnt_TIPSY.mp3","response":1,"test_part":"test","phrase":"9b_natural_Arthur_wasnt_TIPSY","trial_type":"audio-button-response","trial_index":8,"time_elapsed":33858,"internal_node_id":"0.0-2.0-0.3"},{"rt":5079,"stimulus":"audio/5b_demo_the_food_didnt_taste_GOOD.mp3","response":1,"test_part":"test","phrase":"5b_demo_the_food_didnt_taste_GOOD","trial_type":"audio-button-response","trial_index":10,"time_elapsed":42794,"internal_node_id":"0.0-2.0-0.4"},{"rt":3408,"stimulus":"audio/9b_demo_Arthur_wasnt_TIPSY.mp3","response":1,"test_part":"test","phrase":"9b_demo_Arthur_wasnt_TIPSY","trial_type":"audio-button-response","trial_index":12,"time_elapsed":47785,"internal_node_id":"0.0-2.0-0.5"},{"rt":5793,"stimulus":"audio/2a_demo_Peter_wont_eat_anything.mp3","response":0,"test_part":"test","phrase":"2a_demo_Peter_wont_eat_anything","trial_type":"audio-button-response","trial_index":14,"time_elapsed":56753,"internal_node_id":"0.0-2.0-0.6"},{"rt":3393,"stimulus":"audio/1b_natural_the_inbox_wasnt_FULL.mp3","response":0,"test_part":"test","phrase":"1b_natural_the_inbox_wasnt_FULL","trial_type":"audio-button-response","trial_index":16,"time_elapsed":61662,"internal_node_id":"0.0-2.0-0.7"},{"rt":2833,"stimulus":"audio/9a_demo_Arthur_wasnt_tipsy.mp3","response":0,"test_part":"test","phrase":"9a_demo_Arthur_wasnt_tipsy","trial_type":"audio-button-response","trial_index":18,"time_elapsed":66744,"internal_node_id":"0.0-2.0-0.8"},{"rt":3315,"stimulus":"audio/Ea_natural_We_didnt_get_one_Christmas_card.mp3","response":0,"test_part":"test","phrase":"Ea_natural_We_didnt_get_one_Christmas_card","trial_type":"audio-button-response","trial_index":20,"time_elapsed":72307,"internal_node_id":"0.0-2.0-0.9"},{"rt":2368,"stimulus":"audio/Aa_natural_Ken_didnt_feed_the_cat.mp3","response":0,"test_part":"test","phrase":"Aa_natural_Ken_didnt_feed_the_cat","trial_type":"audio-button-response","trial_index":22,"time_elapsed":76054,"internal_node_id":"0.0-2.0-0.10"},{"rt":3062,"stimulus":"audio/Eb_demo_We_didnt_get_ONE_Christmas_card.mp3","response":1,"test_part":"test","phrase":"Eb_demo_We_didnt_get_ONE_Christmas_card","trial_type":"audio-button-response","trial_index":24,"time_elapsed":80692,"internal_node_id":"0.0-2.0-0.11"},{"rt":2595,"stimulus":"audio/5b_natural_the_food_didnt_taste_GOOD.mp3","response":1,"test_part":"test","phrase":"5b_natural_the_food_didnt_taste_GOOD","trial_type":"audio-button-response","trial_index":26,"time_elapsed":85527,"internal_node_id":"0.0-2.0-0.12"},{"rt":3062,"stimulus":"audio/Eb_natural_We_didnt_get_ONE_Christmas_card.mp3","response":0,"test_part":"test","phrase":"Eb_natural_We_didnt_get_ONE_Christmas_card","trial_type":"audio-button-response","trial_index":28,"time_elapsed":91404,"internal_node_id":"0.0-2.0-0.13"},{"rt":3309,"stimulus":"audio/1a_demo_the_inbox_wasnt_full.mp3","response":0,"test_part":"test","phrase":"1a_demo_the_inbox_wasnt_full","trial_type":"audio-button-response","trial_index":30,"time_elapsed":97657,"internal_node_id":"0.0-2.0-0.14"},{"rt":3483,"stimulus":"audio/4b_natural_Thomas_didnt_see_PATRICK.mp3","response":1,"test_part":"test","phrase":"4b_natural_Thomas_didnt_see_PATRICK","trial_type":"audio-button-response","trial_index":32,"time_elapsed":102539,"internal_node_id":"0.0-2.0-0.15"},{"rt":2769,"stimulus":"audio/5a_demo_the_food_didnt_taste_good.mp3","response":0,"test_part":"test","phrase":"5a_demo_the_food_didnt_taste_good","trial_type":"audio-button-response","trial_index":34,"time_elapsed":106643,"internal_node_id":"0.0-2.0-0.16"},{"rt":2487,"stimulus":"audio/3a_natural_Susan_didnt_get_one_credit.mp3","response":0,"test_part":"test","phrase":"3a_natural_Susan_didnt_get_one_credit","trial_type":"audio-button-response","trial_index":36,"time_elapsed":111738,"internal_node_id":"0.0-2.0-0.17"},{"rt":4548,"stimulus":"audio/4b_demo_Thomas_didnt_see_PATRICK.mp3","response":1,"test_part":"test","phrase":"4b_demo_Thomas_didnt_see_PATRICK","trial_type":"audio-button-response","trial_index":38,"time_elapsed":118143,"internal_node_id":"0.0-2.0-0.18"},{"rt":2589,"stimulus":"audio/Ca_demo_Nick_doesnt_listen_to_anyone.mp3","response":0,"test_part":"test","phrase":"Ca_demo_Nick_doesnt_listen_to_anyone","trial_type":"audio-button-response","trial_index":40,"time_elapsed":123157,"internal_node_id":"0.0-2.0-0.19"},{"rt":2188,"stimulus":"audio/2a_natural_Peter_wont_eat_anything.mp3","response":0,"test_part":"test","phrase":"2a_natural_Peter_wont_eat_anything","trial_type":"audio-button-response","trial_index":42,"time_elapsed":128260,"internal_node_id":"0.0-2.0-0.20"},{"rt":2157,"stimulus":"audio/Cb_demo_Nick_doesnt_listen_to_ANYONE.mp3","response":1,"test_part":"test","phrase":"Cb_demo_Nick_doesnt_listen_to_ANYONE","trial_type":"audio-button-response","trial_index":44,"time_elapsed":132304,"internal_node_id":"0.0-2.0-0.21"},{"rt":2157,"stimulus":"audio/Ab_demo_Ken_didnt_feed_the_CAT.mp3","response":1,"test_part":"test","phrase":"Ab_demo_Ken_didnt_feed_the_CAT","trial_type":"audio-button-response","trial_index":46,"time_elapsed":135505,"internal_node_id":"0.0-2.0-0.22"},{"rt":2133,"stimulus":"audio/4a_natural_Thomas_didnt_see_Patrick.mp3","response":0,"test_part":"test","phrase":"4a_natural_Thomas_didnt_see_Patrick","trial_type":"audio-button-response","trial_index":48,"time_elapsed":139813,"internal_node_id":"0.0-2.0-0.23"},{"rt":2545,"stimulus":"audio/Cb_natural_Nick_doesnt_listen_to_ANYONE.mp3","response":0,"test_part":"test","phrase":"Cb_natural_Nick_doesnt_listen_to_ANYONE","trial_type":"audio-button-response","trial_index":50,"time_elapsed":143525,"internal_node_id":"0.0-2.0-0.24"},{"rt":2508,"stimulus":"audio/Aa_demo_Ken_didnt_feed_the_cat.mp3","response":0,"test_part":"test","phrase":"Aa_demo_Ken_didnt_feed_the_cat","trial_type":"audio-button-response","trial_index":52,"time_elapsed":147055,"internal_node_id":"0.0-2.0-0.25"},{"rt":3477,"stimulus":"audio/Db_natural_Mary_doesnt_LIKE_ice_cream.mp3","response":0,"test_part":"test","phrase":"Db_natural_Mary_doesnt_LIKE_ice_cream","trial_type":"audio-button-response","trial_index":54,"time_elapsed":151998,"internal_node_id":"0.0-2.0-0.26"},{"rt":1802,"stimulus":"audio/1a_natural_the_inbox_wasnt_full.mp3","response":0,"test_part":"test","phrase":"1a_natural_the_inbox_wasnt_full","trial_type":"audio-button-response","trial_index":56,"time_elapsed":154825,"internal_node_id":"0.0-2.0-0.27"},{"rt":1948,"stimulus":"audio/5a_natural_the_food_didnt_taste_good.mp3","response":0,"test_part":"test","phrase":"5a_natural_the_food_didnt_taste_good","trial_type":"audio-button-response","trial_index":58,"time_elapsed":158255,"internal_node_id":"0.0-2.0-0.28"},{"rt":3500,"stimulus":"audio/3b_natural_Susan_didnt_get_ONE_credit.mp3","response":0,"test_part":"test","phrase":"3b_natural_Susan_didnt_get_ONE_credit","trial_type":"audio-button-response","trial_index":60,"time_elapsed":163276,"internal_node_id":"0.0-2.0-0.29"},{"rt":2456,"stimulus":"audio/Da_demo_Mary_doesnt_like_ice_cream.mp3","response":0,"test_part":"test","phrase":"Da_demo_Mary_doesnt_like_ice_cream","trial_type":"audio-button-response","trial_index":62,"time_elapsed":166522,"internal_node_id":"0.0-2.0-0.30"},{"rt":2543,"stimulus":"audio/2b_demo_Peter_wont_eat_ANYTHING.mp3","response":1,"test_part":"test","phrase":"2b_demo_Peter_wont_eat_ANYTHING","trial_type":"audio-button-response","trial_index":64,"time_elapsed":170338,"internal_node_id":"0.0-2.0-0.31"},{"rt":2673,"stimulus":"audio/Ea_demo_We_didnt_get_one_Christmas_card.mp3","response":0,"test_part":"test","phrase":"Ea_demo_We_didnt_get_one_Christmas_card","trial_type":"audio-button-response","trial_index":66,"time_elapsed":174075,"internal_node_id":"0.0-2.0-0.32"},{"rt":2171,"stimulus":"audio/9a_natural_Arthur_wasnt_tipsy.mp3","response":0,"test_part":"test","phrase":"9a_natural_Arthur_wasnt_tipsy","trial_type":"audio-button-response","trial_index":68,"time_elapsed":177522,"internal_node_id":"0.0-2.0-0.33"},{"rt":1919,"stimulus":"audio/Ca_natural_Nick_doesnt_listen_to_anyone.mp3","response":0,"test_part":"test","phrase":"Ca_natural_Nick_doesnt_listen_to_anyone","trial_type":"audio-button-response","trial_index":70,"time_elapsed":181997,"internal_node_id":"0.0-2.0-0.34"},{"rt":1564,"stimulus":"audio/2b_natural_Peter_wont_eat_ANYTHING.mp3","response":0,"test_part":"test","phrase":"2b_natural_Peter_wont_eat_ANYTHING","trial_type":"audio-button-response","trial_index":72,"time_elapsed":184418,"internal_node_id":"0.0-2.0-0.35"},{"rt":2255,"stimulus":"audio/4a_demo_Thomas_didnt_see_Patrick.mp3","response":0,"test_part":"test","phrase":"4a_demo_Thomas_didnt_see_Patrick","trial_type":"audio-button-response","trial_index":74,"time_elapsed":187565,"internal_node_id":"0.0-2.0-0.36"},{"rt":2638,"stimulus":"audio/1b_demo_the_inbox_wasnt_FULL.mp3","response":1,"test_part":"test","phrase":"1b_demo_the_inbox_wasnt_FULL","trial_type":"audio-button-response","trial_index":76,"time_elapsed":191163,"internal_node_id":"0.0-2.0-0.37"},{"rt":3019,"stimulus":"audio/Da_natural_Mary_doesnt_like_ice_cream.mp3","response":0,"test_part":"test","phrase":"Da_natural_Mary_doesnt_like_ice_cream","trial_type":"audio-button-response","trial_index":78,"time_elapsed":195175,"internal_node_id":"0.0-2.0-0.38"},{"rt":2374,"stimulus":"audio/Ab_natural_Ken_didnt_feed_the_CAT.mp3","response":0,"test_part":"test","phrase":"Ab_natural_Ken_didnt_feed_the_CAT","trial_type":"audio-button-response","trial_index":80,"time_elapsed":198743,"internal_node_id":"0.0-2.0-0.39"}]