[{"rt":5589,"stimulus":"audio/5b_demo_the_food_didnt_taste_GOOD.mp3","response":2,"test_part":"test","phrase":"5b_demo_the_food_didnt_taste_GOOD","trial_type":"audio-button-response","trial_index":2,"time_elapsed":14439,"internal_node_id":"0.0-2.0-0.0"},{"rt":5139,"stimulus":"audio/5b_demo_the_food_didnt_taste_GOOD.mp3","response":0,"test_part":"test","phrase":"5b_demo_the_food_didnt_taste_GOOD","trial_type":"audio-button-response","trial_index":3,"time_elapsed":19589,"internal_node_id":"0.0-2.0-1.0-0.0"},{"rt":3381,"stimulus":"audio/Db_natural_Mary_doesnt_LIKE_ice_cream.mp3","response":2,"test_part":"test","phrase":"Db_natural_Mary_doesnt_LIKE_ice_cream","trial_type":"audio-button-response","trial_index":5,"time_elapsed":26008,"internal_node_id":"0.0-2.0-0.1"},{"rt":4659,"stimulus":"audio/Db_natural_Mary_doesnt_LIKE_ice_cream.mp3","response":0,"test_part":"test","phrase":"Db_natural_Mary_doesnt_LIKE_ice_cream","trial_type":"audio-button-response","trial_index":6,"time_elapsed":30674,"internal_node_id":"0.0-2.0-1.1-0.1"},{"rt":6200,"stimulus":"audio/5a_demo_the_food_didnt_taste_good.mp3","response":0,"test_part":"test","phrase":"5a_demo_the_food_didnt_taste_good","trial_type":"audio-button-response","trial_index":8,"time_elapsed":40133,"internal_node_id":"0.0-2.0-0.2"},{"rt":7379,"stimulus":"audio/4a_demo_Thomas_didnt_see_Patrick.mp3","response":2,"test_part":"test","phrase":"4a_demo_Thomas_didnt_see_Patrick","trial_type":"audio-button-response","trial_index":10,"time_elapsed":49339,"internal_node_id":"0.0-2.0-0.3"},{"rt":3920,"stimulus":"audio/4a_demo_Thomas_didnt_see_Patrick.mp3","response":0,"test_part":"test","phrase":"4a_demo_Thomas_didnt_see_Patrick","trial_type":"audio-button-response","trial_index":11,"time_elapsed":53268,"internal_node_id":"0.0-2.0-1.3-0.3"},{"rt":7248,"stimulus":"audio/5b_natural_the_food_didnt_taste_GOOD.mp3","response":0,"test_part":"test","phrase":"5b_natural_the_food_didnt_taste_GOOD","trial_type":"audio-button-response","trial_index":13,"time_elapsed":62508,"internal_node_id":"0.0-2.0-0.4"},{"rt":3531,"stimulus":"audio/9a_natural_Arthur_wasnt_tipsy.mp3","response":2,"test_part":"test","phrase":"9a_natural_Arthur_wasnt_tipsy","trial_type":"audio-button-response","trial_index":15,"time_elapsed":67638,"internal_node_id":"0.0-2.0-0.5"},{"rt":3171,"stimulus":"audio/9a_natural_Arthur_wasnt_tipsy.mp3","response":0,"test_part":"test","phrase":"9a_natural_Arthur_wasnt_tipsy","trial_type":"audio-button-response","trial_index":16,"time_elapsed":70818,"internal_node_id":"0.0-2.0-1.5-0.5"},{"rt":5371,"stimulus":"audio/Aa_demo_Ken_didnt_feed_the_cat.mp3","response":1,"test_part":"test","phrase":"Aa_demo_Ken_didnt_feed_the_cat","trial_type":"audio-button-response","trial_index":18,"time_elapsed":77051,"internal_node_id":"0.0-2.0-0.6"},{"rt":3451,"stimulus":"audio/Ea_demo_We_didnt_get_one_Christmas_card.mp3","response":1,"test_part":"test","phrase":"Ea_demo_We_didnt_get_one_Christmas_card","trial_type":"audio-button-response","trial_index":20,"time_elapsed":82048,"internal_node_id":"0.0-2.0-0.7"},{"rt":8301,"stimulus":"audio/Da_demo_Mary_doesnt_like_ice_cream.mp3","response":1,"test_part":"test","phrase":"Da_demo_Mary_doesnt_like_ice_cream","trial_type":"audio-button-response","trial_index":22,"time_elapsed":91520,"internal_node_id":"0.0-2.0-0.8"},{"rt":3749,"stimulus":"audio/3b_natural_Susan_didnt_get_ONE_credit.mp3","response":1,"test_part":"test","phrase":"3b_natural_Susan_didnt_get_ONE_credit","trial_type":"audio-button-response","trial_index":24,"time_elapsed":96129,"internal_node_id":"0.0-2.0-0.9"},{"rt":2331,"stimulus":"audio/9b_natural_Arthur_wasnt_TIPSY.mp3","response":1,"test_part":"test","phrase":"9b_natural_Arthur_wasnt_TIPSY","trial_type":"audio-button-response","trial_index":26,"time_elapsed":99079,"internal_node_id":"0.0-2.0-0.10"},{"rt":2891,"stimulus":"audio/Eb_demo_We_didnt_get_ONE_Christmas_card.mp3","response":1,"test_part":"test","phrase":"Eb_demo_We_didnt_get_ONE_Christmas_card","trial_type":"audio-button-response","trial_index":28,"time_elapsed":102639,"internal_node_id":"0.0-2.0-0.11"},{"rt":3280,"stimulus":"audio/1b_natural_the_inbox_wasnt_FULL.mp3","response":2,"test_part":"test","phrase":"1b_natural_the_inbox_wasnt_FULL","trial_type":"audio-button-response","trial_index":30,"time_elapsed":106539,"internal_node_id":"0.0-2.0-0.12"},{"rt":3600,"stimulus":"audio/1b_natural_the_inbox_wasnt_FULL.mp3","response":1,"test_part":"test","phrase":"1b_natural_the_inbox_wasnt_FULL","trial_type":"audio-button-response","trial_index":31,"time_elapsed":110148,"internal_node_id":"0.0-2.0-1.12-0.12"},{"rt":2640,"stimulus":"audio/4a_natural_Thomas_didnt_see_Patrick.mp3","response":0,"test_part":"test","phrase":"4a_natural_Thomas_didnt_see_Patrick","trial_type":"audio-button-response","trial_index":33,"time_elapsed":113739,"internal_node_id":"0.0-2.0-0.13"},{"rt":2981,"stimulus":"audio/Ab_natural_Ken_didnt_feed_the_CAT.mp3","response":1,"test_part":"test","phrase":"Ab_natural_Ken_didnt_feed_the_CAT","trial_type":"audio-button-response","trial_index":35,"time_elapsed":117366,"internal_node_id":"0.0-2.0-0.14"},{"rt":5560,"stimulus":"audio/2a_natural_Peter_wont_eat_anything.mp3","response":0,"test_part":"test","phrase":"2a_natural_Peter_wont_eat_anything","trial_type":"audio-button-response","trial_index":37,"time_elapsed":123589,"internal_node_id":"0.0-2.0-0.15"},{"rt":2021,"stimulus":"audio/1a_natural_the_inbox_wasnt_full.mp3","response":0,"test_part":"test","phrase":"1a_natural_the_inbox_wasnt_full","trial_type":"audio-button-response","trial_index":39,"time_elapsed":126449,"internal_node_id":"0.0-2.0-0.16"},{"rt":3952,"stimulus":"audio/2a_demo_Peter_wont_eat_anything.mp3","response":2,"test_part":"test","phrase":"2a_demo_Peter_wont_eat_anything","trial_type":"audio-button-response","trial_index":41,"time_elapsed":131049,"internal_node_id":"0.0-2.0-0.17"},{"rt":1869,"stimulus":"audio/2a_demo_Peter_wont_eat_anything.mp3","response":0,"test_part":"test","phrase":"2a_demo_Peter_wont_eat_anything","trial_type":"audio-button-response","trial_index":42,"time_elapsed":132928,"internal_node_id":"0.0-2.0-1.17-0.17"},{"rt":2880,"stimulus":"audio/Db_demo_Mary_doesnt_LIKE_ice_cream.mp3","response":1,"test_part":"test","phrase":"Db_demo_Mary_doesnt_LIKE_ice_cream","trial_type":"audio-button-response","trial_index":44,"time_elapsed":136699,"internal_node_id":"0.0-2.0-0.18"},{"rt":2429,"stimulus":"audio/5a_natural_the_food_didnt_taste_good.mp3","response":0,"test_part":"test","phrase":"5a_natural_the_food_didnt_taste_good","trial_type":"audio-button-response","trial_index":46,"time_elapsed":139719,"internal_node_id":"0.0-2.0-0.19"},{"rt":2829,"stimulus":"audio/1b_demo_the_inbox_wasnt_FULL.mp3","response":1,"test_part":"test","phrase":"1b_demo_the_inbox_wasnt_FULL","trial_type":"audio-button-response","trial_index":48,"time_elapsed":143240,"internal_node_id":"0.0-2.0-0.20"},{"rt":2992,"stimulus":"audio/3a_demo_Susan_didnt_get_one_credit.mp3","response":0,"test_part":"test","phrase":"3a_demo_Susan_didnt_get_one_credit","trial_type":"audio-button-response","trial_index":50,"time_elapsed":146899,"internal_node_id":"0.0-2.0-0.21"},{"rt":3541,"stimulus":"audio/Eb_natural_We_didnt_get_ONE_Christmas_card.mp3","response":1,"test_part":"test","phrase":"Eb_natural_We_didnt_get_ONE_Christmas_card","trial_type":"audio-button-response","trial_index":52,"time_elapsed":151053,"internal_node_id":"0.0-2.0-0.22"},{"rt":4040,"stimulus":"audio/Ca_natural_Nick_doesnt_listen_to_anyone.mp3","response":0,"test_part":"test","phrase":"Ca_natural_Nick_doesnt_listen_to_anyone","trial_type":"audio-button-response","trial_index":54,"time_elapsed":155603,"internal_node_id":"0.0-2.0-0.23"},{"rt":4709,"stimulus":"audio/4b_demo_Thomas_didnt_see_PATRICK.mp3","response":1,"test_part":"test","phrase":"4b_demo_Thomas_didnt_see_PATRICK","trial_type":"audio-button-response","trial_index":56,"time_elapsed":160889,"internal_node_id":"0.0-2.0-0.24"},{"rt":2432,"stimulus":"audio/9b_demo_Arthur_wasnt_TIPSY.mp3","response":1,"test_part":"test","phrase":"9b_demo_Arthur_wasnt_TIPSY","trial_type":"audio-button-response","trial_index":58,"time_elapsed":164338,"internal_node_id":"0.0-2.0-0.25"},{"rt":2712,"stimulus":"audio/2b_demo_Peter_wont_eat_ANYTHING.mp3","response":1,"test_part":"test","phrase":"2b_demo_Peter_wont_eat_ANYTHING","trial_type":"audio-button-response","trial_index":60,"time_elapsed":167571,"internal_node_id":"0.0-2.0-0.26"},{"rt":3011,"stimulus":"audio/Ca_demo_Nick_doesnt_listen_to_anyone.mp3","response":0,"test_part":"test","phrase":"Ca_demo_Nick_doesnt_listen_to_anyone","trial_type":"audio-button-response","trial_index":62,"time_elapsed":171078,"internal_node_id":"0.0-2.0-0.27"},{"rt":5451,"stimulus":"audio/4b_natural_Thomas_didnt_see_PATRICK.mp3","response":1,"test_part":"test","phrase":"4b_natural_Thomas_didnt_see_PATRICK","trial_type":"audio-button-response","trial_index":64,"time_elapsed":177044,"internal_node_id":"0.0-2.0-0.28"},{"rt":3581,"stimulus":"audio/Cb_natural_Nick_doesnt_listen_to_ANYONE.mp3","response":1,"test_part":"test","phrase":"Cb_natural_Nick_doesnt_listen_to_ANYONE","trial_type":"audio-button-response","trial_index":66,"time_elapsed":181448,"internal_node_id":"0.0-2.0-0.29"},{"rt":2600,"stimulus":"audio/Da_natural_Mary_doesnt_like_ice_cream.mp3","response":0,"test_part":"test","phrase":"Da_natural_Mary_doesnt_like_ice_cream","trial_type":"audio-button-response","trial_index":68,"time_elapsed":184649,"internal_node_id":"0.0-2.0-0.30"},{"rt":2971,"stimulus":"audio/Cb_demo_Nick_doesnt_listen_to_ANYONE.mp3","response":1,"test_part":"test","phrase":"Cb_demo_Nick_doesnt_listen_to_ANYONE","trial_type":"audio-button-response","trial_index":70,"time_elapsed":188129,"internal_node_id":"0.0-2.0-0.31"},{"rt":2661,"stimulus":"audio/3a_natural_Susan_didnt_get_one_credit.mp3","response":0,"test_part":"test","phrase":"3a_natural_Susan_didnt_get_one_credit","trial_type":"audio-button-response","trial_index":72,"time_elapsed":191285,"internal_node_id":"0.0-2.0-0.32"},{"rt":2411,"stimulus":"audio/Aa_natural_Ken_didnt_feed_the_cat.mp3","response":0,"test_part":"test","phrase":"Aa_natural_Ken_didnt_feed_the_cat","trial_type":"audio-button-response","trial_index":74,"time_elapsed":194238,"internal_node_id":"0.0-2.0-0.33"},{"rt":3120,"stimulus":"audio/3b_demo_Susan_didnt_get_ONE_credit.mp3","response":1,"test_part":"test","phrase":"3b_demo_Susan_didnt_get_ONE_credit","trial_type":"audio-button-response","trial_index":76,"time_elapsed":198009,"internal_node_id":"0.0-2.0-0.34"},{"rt":2259,"stimulus":"audio/2b_natural_Peter_wont_eat_ANYTHING.mp3","response":0,"test_part":"test","phrase":"2b_natural_Peter_wont_eat_ANYTHING","trial_type":"audio-button-response","trial_index":78,"time_elapsed":200839,"internal_node_id":"0.0-2.0-0.35"},{"rt":3709,"stimulus":"audio/9a_demo_Arthur_wasnt_tipsy.mp3","response":2,"test_part":"test","phrase":"9a_demo_Arthur_wasnt_tipsy","trial_type":"audio-button-response","trial_index":80,"time_elapsed":205049,"internal_node_id":"0.0-2.0-0.36"},{"rt":3408,"stimulus":"audio/9a_demo_Arthur_wasnt_tipsy.mp3","response":0,"test_part":"test","phrase":"9a_demo_Arthur_wasnt_tipsy","trial_type":"audio-button-response","trial_index":81,"time_elapsed":208468,"internal_node_id":"0.0-2.0-1.36-0.36"},{"rt":5949,"stimulus":"audio/1a_demo_the_inbox_wasnt_full.mp3","response":1,"test_part":"test","phrase":"1a_demo_the_inbox_wasnt_full","trial_type":"audio-button-response","trial_index":83,"time_elapsed":215398,"internal_node_id":"0.0-2.0-0.37"},{"rt":2731,"stimulus":"audio/Ea_natural_We_didnt_get_one_Christmas_card.mp3","response":0,"test_part":"test","phrase":"Ea_natural_We_didnt_get_one_Christmas_card","trial_type":"audio-button-response","trial_index":85,"time_elapsed":219077,"internal_node_id":"0.0-2.0-0.38"},{"rt":2672,"stimulus":"audio/Ab_demo_Ken_didnt_feed_the_CAT.mp3","response":1,"test_part":"test","phrase":"Ab_demo_Ken_didnt_feed_the_CAT","trial_type":"audio-button-response","trial_index":87,"time_elapsed":222418,"internal_node_id":"0.0-2.0-0.39"}]