[{"rt":9832,"stimulus":"audio/3b_demo_Susan_didnt_get_ONE_credit.mp3","response":1,"test_part":"test","phrase":"3b_demo_Susan_didnt_get_ONE_credit","trial_type":"audio-button-response","trial_index":2,"time_elapsed":19035,"internal_node_id":"0.0-2.0-0.0"},{"rt":20251,"stimulus":"audio/4a_demo_Thomas_didnt_see_Patrick.mp3","response":2,"test_part":"test","phrase":"4a_demo_Thomas_didnt_see_Patrick","trial_type":"audio-button-response","trial_index":4,"time_elapsed":41732,"internal_node_id":"0.0-2.0-0.1"},{"rt":9629,"stimulus":"audio/4a_demo_Thomas_didnt_see_Patrick.mp3","response":0,"test_part":"test","phrase":"4a_demo_Thomas_didnt_see_Patrick","trial_type":"audio-button-response","trial_index":5,"time_elapsed":51369,"internal_node_id":"0.0-2.0-1.1-0.1"},{"rt":10029,"stimulus":"audio/Db_demo_Mary_doesnt_LIKE_ice_cream.mp3","response":0,"test_part":"test","phrase":"Db_demo_Mary_doesnt_LIKE_ice_cream","trial_type":"audio-button-response","trial_index":7,"time_elapsed":63908,"internal_node_id":"0.0-2.0-0.2"},{"rt":5848,"stimulus":"audio/2a_natural_Peter_wont_eat_anything.mp3","response":0,"test_part":"test","phrase":"2a_natural_Peter_wont_eat_anything","trial_type":"audio-button-response","trial_index":9,"time_elapsed":72501,"internal_node_id":"0.0-2.0-0.3"},{"rt":3459,"stimulus":"audio/Eb_demo_We_didnt_get_ONE_Christmas_card.mp3","response":1,"test_part":"test","phrase":"Eb_demo_We_didnt_get_ONE_Christmas_card","trial_type":"audio-button-response","trial_index":11,"time_elapsed":79035,"internal_node_id":"0.0-2.0-0.4"},{"rt":7651,"stimulus":"audio/4a_natural_Thomas_didnt_see_Patrick.mp3","response":1,"test_part":"test","phrase":"4a_natural_Thomas_didnt_see_Patrick","trial_type":"audio-button-response","trial_index":13,"time_elapsed":88996,"internal_node_id":"0.0-2.0-0.5"},{"rt":8469,"stimulus":"audio/5a_demo_the_food_didnt_taste_good.mp3","response":1,"test_part":"test","phrase":"5a_demo_the_food_didnt_taste_good","trial_type":"audio-button-response","trial_index":15,"time_elapsed":99081,"internal_node_id":"0.0-2.0-0.6"},{"rt":6240,"stimulus":"audio/1b_natural_the_inbox_wasnt_FULL.mp3","response":0,"test_part":"test","phrase":"1b_natural_the_inbox_wasnt_FULL","trial_type":"audio-button-response","trial_index":17,"time_elapsed":106459,"internal_node_id":"0.0-2.0-0.7"},{"rt":6949,"stimulus":"audio/Cb_demo_Nick_doesnt_listen_to_ANYONE.mp3","response":2,"test_part":"test","phrase":"Cb_demo_Nick_doesnt_listen_to_ANYONE","trial_type":"audio-button-response","trial_index":19,"time_elapsed":114926,"internal_node_id":"0.0-2.0-0.8"},{"rt":3000,"stimulus":"audio/Cb_demo_Nick_doesnt_listen_to_ANYONE.mp3","response":1,"test_part":"test","phrase":"Cb_demo_Nick_doesnt_listen_to_ANYONE","trial_type":"audio-button-response","trial_index":20,"time_elapsed":117935,"internal_node_id":"0.0-2.0-1.8-0.8"},{"rt":5960,"stimulus":"audio/1a_natural_the_inbox_wasnt_full.mp3","response":0,"test_part":"test","phrase":"1a_natural_the_inbox_wasnt_full","trial_type":"audio-button-response","trial_index":22,"time_elapsed":125345,"internal_node_id":"0.0-2.0-0.9"},{"rt":7928,"stimulus":"audio/Da_natural_Mary_doesnt_like_ice_cream.mp3","response":1,"test_part":"test","phrase":"Da_natural_Mary_doesnt_like_ice_cream","trial_type":"audio-button-response","trial_index":24,"time_elapsed":134067,"internal_node_id":"0.0-2.0-0.10"},{"rt":3600,"stimulus":"audio/Ea_natural_We_didnt_get_one_Christmas_card.mp3","response":0,"test_part":"test","phrase":"Ea_natural_We_didnt_get_one_Christmas_card","trial_type":"audio-button-response","trial_index":26,"time_elapsed":138472,"internal_node_id":"0.0-2.0-0.11"},{"rt":5099,"stimulus":"audio/4b_natural_Thomas_didnt_see_PATRICK.mp3","response":0,"test_part":"test","phrase":"4b_natural_Thomas_didnt_see_PATRICK","trial_type":"audio-button-response","trial_index":28,"time_elapsed":144983,"internal_node_id":"0.0-2.0-0.12"},{"rt":4179,"stimulus":"audio/Aa_demo_Ken_didnt_feed_the_cat.mp3","response":2,"test_part":"test","phrase":"Aa_demo_Ken_didnt_feed_the_cat","trial_type":"audio-button-response","trial_index":30,"time_elapsed":150354,"internal_node_id":"0.0-2.0-0.13"},{"rt":2640,"stimulus":"audio/Aa_demo_Ken_didnt_feed_the_cat.mp3","response":1,"test_part":"test","phrase":"Aa_demo_Ken_didnt_feed_the_cat","trial_type":"audio-button-response","trial_index":31,"time_elapsed":153001,"internal_node_id":"0.0-2.0-1.13-0.13"},{"rt":5720,"stimulus":"audio/4b_demo_Thomas_didnt_see_PATRICK.mp3","response":1,"test_part":"test","phrase":"4b_demo_Thomas_didnt_see_PATRICK","trial_type":"audio-button-response","trial_index":33,"time_elapsed":159843,"internal_node_id":"0.0-2.0-0.14"},{"rt":4731,"stimulus":"audio/2b_natural_Peter_wont_eat_ANYTHING.mp3","response":0,"test_part":"test","phrase":"2b_natural_Peter_wont_eat_ANYTHING","trial_type":"audio-button-response","trial_index":35,"time_elapsed":165594,"internal_node_id":"0.0-2.0-0.15"},{"rt":5688,"stimulus":"audio/Ea_demo_We_didnt_get_one_Christmas_card.mp3","response":1,"test_part":"test","phrase":"Ea_demo_We_didnt_get_one_Christmas_card","trial_type":"audio-button-response","trial_index":37,"time_elapsed":172386,"internal_node_id":"0.0-2.0-0.16"},{"rt":3251,"stimulus":"audio/2b_demo_Peter_wont_eat_ANYTHING.mp3","response":1,"test_part":"test","phrase":"2b_demo_Peter_wont_eat_ANYTHING","trial_type":"audio-button-response","trial_index":39,"time_elapsed":177854,"internal_node_id":"0.0-2.0-0.17"},{"rt":4808,"stimulus":"audio/Ab_demo_Ken_didnt_feed_the_CAT.mp3","response":1,"test_part":"test","phrase":"Ab_demo_Ken_didnt_feed_the_CAT","trial_type":"audio-button-response","trial_index":41,"time_elapsed":183785,"internal_node_id":"0.0-2.0-0.18"},{"rt":5040,"stimulus":"audio/Da_demo_Mary_doesnt_like_ice_cream.mp3","response":0,"test_part":"test","phrase":"Da_demo_Mary_doesnt_like_ice_cream","trial_type":"audio-button-response","trial_index":43,"time_elapsed":190012,"internal_node_id":"0.0-2.0-0.19"},{"rt":3371,"stimulus":"audio/3a_demo_Susan_didnt_get_one_credit.mp3","response":0,"test_part":"test","phrase":"3a_demo_Susan_didnt_get_one_credit","trial_type":"audio-button-response","trial_index":45,"time_elapsed":194696,"internal_node_id":"0.0-2.0-0.20"},{"rt":6640,"stimulus":"audio/5b_demo_the_food_didnt_taste_GOOD.mp3","response":1,"test_part":"test","phrase":"5b_demo_the_food_didnt_taste_GOOD","trial_type":"audio-button-response","trial_index":47,"time_elapsed":203263,"internal_node_id":"0.0-2.0-0.21"},{"rt":3560,"stimulus":"audio/9a_natural_Arthur_wasnt_tipsy.mp3","response":0,"test_part":"test","phrase":"9a_natural_Arthur_wasnt_tipsy","trial_type":"audio-button-response","trial_index":49,"time_elapsed":207817,"internal_node_id":"0.0-2.0-0.22"},{"rt":2800,"stimulus":"audio/3a_natural_Susan_didnt_get_one_credit.mp3","response":0,"test_part":"test","phrase":"3a_natural_Susan_didnt_get_one_credit","trial_type":"audio-button-response","trial_index":51,"time_elapsed":211833,"internal_node_id":"0.0-2.0-0.23"},{"rt":3091,"stimulus":"audio/Aa_natural_Ken_didnt_feed_the_cat.mp3","response":0,"test_part":"test","phrase":"Aa_natural_Ken_didnt_feed_the_cat","trial_type":"audio-button-response","trial_index":53,"time_elapsed":215766,"internal_node_id":"0.0-2.0-0.24"},{"rt":6480,"stimulus":"audio/5b_natural_the_food_didnt_taste_GOOD.mp3","response":0,"test_part":"test","phrase":"5b_natural_the_food_didnt_taste_GOOD","trial_type":"audio-button-response","trial_index":55,"time_elapsed":223126,"internal_node_id":"0.0-2.0-0.25"},{"rt":3749,"stimulus":"audio/Db_natural_Mary_doesnt_LIKE_ice_cream.mp3","response":1,"test_part":"test","phrase":"Db_natural_Mary_doesnt_LIKE_ice_cream","trial_type":"audio-button-response","trial_index":57,"time_elapsed":227860,"internal_node_id":"0.0-2.0-0.26"},{"rt":4768,"stimulus":"audio/3b_natural_Susan_didnt_get_ONE_credit.mp3","response":0,"test_part":"test","phrase":"3b_natural_Susan_didnt_get_ONE_credit","trial_type":"audio-button-response","trial_index":59,"time_elapsed":233743,"internal_node_id":"0.0-2.0-0.27"},{"rt":9229,"stimulus":"audio/9a_demo_Arthur_wasnt_tipsy.mp3","response":2,"test_part":"test","phrase":"9a_demo_Arthur_wasnt_tipsy","trial_type":"audio-button-response","trial_index":61,"time_elapsed":244027,"internal_node_id":"0.0-2.0-0.28"},{"rt":7451,"stimulus":"audio/9a_demo_Arthur_wasnt_tipsy.mp3","response":1,"test_part":"test","phrase":"9a_demo_Arthur_wasnt_tipsy","trial_type":"audio-button-response","trial_index":62,"time_elapsed":251477,"internal_node_id":"0.0-2.0-1.28-0.28"},{"rt":5549,"stimulus":"audio/5a_natural_the_food_didnt_taste_good.mp3","response":2,"test_part":"test","phrase":"5a_natural_the_food_didnt_taste_good","trial_type":"audio-button-response","trial_index":64,"time_elapsed":258640,"internal_node_id":"0.0-2.0-0.29"},{"rt":4211,"stimulus":"audio/5a_natural_the_food_didnt_taste_good.mp3","response":0,"test_part":"test","phrase":"5a_natural_the_food_didnt_taste_good","trial_type":"audio-button-response","trial_index":65,"time_elapsed":262847,"internal_node_id":"0.0-2.0-1.29-0.29"},{"rt":4800,"stimulus":"audio/Ca_natural_Nick_doesnt_listen_to_anyone.mp3","response":0,"test_part":"test","phrase":"Ca_natural_Nick_doesnt_listen_to_anyone","trial_type":"audio-button-response","trial_index":67,"time_elapsed":268896,"internal_node_id":"0.0-2.0-0.30"},{"rt":14269,"stimulus":"audio/1a_demo_the_inbox_wasnt_full.mp3","response":2,"test_part":"test","phrase":"1a_demo_the_inbox_wasnt_full","trial_type":"audio-button-response","trial_index":69,"time_elapsed":284262,"internal_node_id":"0.0-2.0-0.31"},{"rt":10571,"stimulus":"audio/1a_demo_the_inbox_wasnt_full.mp3","response":0,"test_part":"test","phrase":"1a_demo_the_inbox_wasnt_full","trial_type":"audio-button-response","trial_index":70,"time_elapsed":294831,"internal_node_id":"0.0-2.0-1.31-0.31"},{"rt":7240,"stimulus":"audio/Eb_natural_We_didnt_get_ONE_Christmas_card.mp3","response":2,"test_part":"test","phrase":"Eb_natural_We_didnt_get_ONE_Christmas_card","trial_type":"audio-button-response","trial_index":72,"time_elapsed":303742,"internal_node_id":"0.0-2.0-0.32"},{"rt":10411,"stimulus":"audio/Eb_natural_We_didnt_get_ONE_Christmas_card.mp3","response":0,"test_part":"test","phrase":"Eb_natural_We_didnt_get_ONE_Christmas_card","trial_type":"audio-button-response","trial_index":73,"time_elapsed":314149,"internal_node_id":"0.0-2.0-1.32-0.32"},{"rt":4120,"stimulus":"audio/Ca_demo_Nick_doesnt_listen_to_anyone.mp3","response":0,"test_part":"test","phrase":"Ca_demo_Nick_doesnt_listen_to_anyone","trial_type":"audio-button-response","trial_index":75,"time_elapsed":320085,"internal_node_id":"0.0-2.0-0.33"},{"rt":10901,"stimulus":"audio/2a_demo_Peter_wont_eat_anything.mp3","response":1,"test_part":"test","phrase":"2a_demo_Peter_wont_eat_anything","trial_type":"audio-button-response","trial_index":77,"time_elapsed":332085,"internal_node_id":"0.0-2.0-0.34"},{"rt":6549,"stimulus":"audio/Ab_natural_Ken_didnt_feed_the_CAT.mp3","response":1,"test_part":"test","phrase":"Ab_natural_Ken_didnt_feed_the_CAT","trial_type":"audio-button-response","trial_index":79,"time_elapsed":339665,"internal_node_id":"0.0-2.0-0.35"},{"rt":8592,"stimulus":"audio/9b_natural_Arthur_wasnt_TIPSY.mp3","response":1,"test_part":"test","phrase":"9b_natural_Arthur_wasnt_TIPSY","trial_type":"audio-button-response","trial_index":81,"time_elapsed":349211,"internal_node_id":"0.0-2.0-0.36"},{"rt":5051,"stimulus":"audio/1b_demo_the_inbox_wasnt_FULL.mp3","response":1,"test_part":"test","phrase":"1b_demo_the_inbox_wasnt_FULL","trial_type":"audio-button-response","trial_index":83,"time_elapsed":355408,"internal_node_id":"0.0-2.0-0.37"},{"rt":6560,"stimulus":"audio/Cb_natural_Nick_doesnt_listen_to_ANYONE.mp3","response":2,"test_part":"test","phrase":"Cb_natural_Nick_doesnt_listen_to_ANYONE","trial_type":"audio-button-response","trial_index":85,"time_elapsed":366894,"internal_node_id":"0.0-2.0-0.38"},{"rt":2392,"stimulus":"audio/Cb_natural_Nick_doesnt_listen_to_ANYONE.mp3","response":1,"test_part":"test","phrase":"Cb_natural_Nick_doesnt_listen_to_ANYONE","trial_type":"audio-button-response","trial_index":86,"time_elapsed":369289,"internal_node_id":"0.0-2.0-1.38-0.38"},{"rt":4259,"stimulus":"audio/9b_demo_Arthur_wasnt_TIPSY.mp3","response":0,"test_part":"test","phrase":"9b_demo_Arthur_wasnt_TIPSY","trial_type":"audio-button-response","trial_index":88,"time_elapsed":374794,"internal_node_id":"0.0-2.0-0.39"}]