[{"rt":5611,"stimulus":"audio/3b_demo_Susan_didnt_get_ONE_credit.mp3","response":0,"test_part":"test","phrase":"3b_demo_Susan_didnt_get_ONE_credit","trial_type":"audio-button-response","trial_index":2,"time_elapsed":13002,"internal_node_id":"0.0-2.0-0.0"},{"rt":2805,"stimulus":"audio/4b_natural_Thomas_didnt_see_PATRICK.mp3","response":0,"test_part":"test","phrase":"4b_natural_Thomas_didnt_see_PATRICK","trial_type":"audio-button-response","trial_index":4,"time_elapsed":18676,"internal_node_id":"0.0-2.0-0.1"},{"rt":2443,"stimulus":"audio/Aa_demo_Ken_didnt_feed_the_cat.mp3","response":0,"test_part":"test","phrase":"Aa_demo_Ken_didnt_feed_the_cat","trial_type":"audio-button-response","trial_index":6,"time_elapsed":23453,"internal_node_id":"0.0-2.0-0.2"},{"rt":6709,"stimulus":"audio/4b_demo_Thomas_didnt_see_PATRICK.mp3","response":1,"test_part":"test","phrase":"4b_demo_Thomas_didnt_see_PATRICK","trial_type":"audio-button-response","trial_index":8,"time_elapsed":32115,"internal_node_id":"0.0-2.0-0.3"},{"rt":4032,"stimulus":"audio/Cb_natural_Nick_doesnt_listen_to_ANYONE.mp3","response":0,"test_part":"test","phrase":"Cb_natural_Nick_doesnt_listen_to_ANYONE","trial_type":"audio-button-response","trial_index":10,"time_elapsed":38190,"internal_node_id":"0.0-2.0-0.4"},{"rt":2464,"stimulus":"audio/4a_natural_Thomas_didnt_see_Patrick.mp3","response":0,"test_part":"test","phrase":"4a_natural_Thomas_didnt_see_Patrick","trial_type":"audio-button-response","trial_index":12,"time_elapsed":43262,"internal_node_id":"0.0-2.0-0.5"},{"rt":4576,"stimulus":"audio/Eb_demo_We_didnt_get_ONE_Christmas_card.mp3","response":1,"test_part":"test","phrase":"Eb_demo_We_didnt_get_ONE_Christmas_card","trial_type":"audio-button-response","trial_index":14,"time_elapsed":51033,"internal_node_id":"0.0-2.0-0.6"},{"rt":4587,"stimulus":"audio/1a_natural_the_inbox_wasnt_full.mp3","response":2,"test_part":"test","phrase":"1a_natural_the_inbox_wasnt_full","trial_type":"audio-button-response","trial_index":16,"time_elapsed":59898,"internal_node_id":"0.0-2.0-0.7"},{"rt":2635,"stimulus":"audio/1a_natural_the_inbox_wasnt_full.mp3","response":0,"test_part":"test","phrase":"1a_natural_the_inbox_wasnt_full","trial_type":"audio-button-response","trial_index":17,"time_elapsed":62536,"internal_node_id":"0.0-2.0-1.7-0.7"},{"rt":6176,"stimulus":"audio/Cb_demo_Nick_doesnt_listen_to_ANYONE.mp3","response":0,"test_part":"test","phrase":"Cb_demo_Nick_doesnt_listen_to_ANYONE","trial_type":"audio-button-response","trial_index":19,"time_elapsed":72043,"internal_node_id":"0.0-2.0-0.8"},{"rt":2624,"stimulus":"audio/5b_natural_the_food_didnt_taste_GOOD.mp3","response":0,"test_part":"test","phrase":"5b_natural_the_food_didnt_taste_GOOD","trial_type":"audio-button-response","trial_index":21,"time_elapsed":78443,"internal_node_id":"0.0-2.0-0.9"},{"rt":3947,"stimulus":"audio/9a_demo_Arthur_wasnt_tipsy.mp3","response":2,"test_part":"test","phrase":"9a_demo_Arthur_wasnt_tipsy","trial_type":"audio-button-response","trial_index":23,"time_elapsed":84181,"internal_node_id":"0.0-2.0-0.10"},{"rt":2667,"stimulus":"audio/9a_demo_Arthur_wasnt_tipsy.mp3","response":0,"test_part":"test","phrase":"9a_demo_Arthur_wasnt_tipsy","trial_type":"audio-button-response","trial_index":24,"time_elapsed":86851,"internal_node_id":"0.0-2.0-1.10-0.10"},{"rt":5728,"stimulus":"audio/5b_demo_the_food_didnt_taste_GOOD.mp3","response":0,"test_part":"test","phrase":"5b_demo_the_food_didnt_taste_GOOD","trial_type":"audio-button-response","trial_index":26,"time_elapsed":94271,"internal_node_id":"0.0-2.0-0.11"},{"rt":3552,"stimulus":"audio/1b_natural_the_inbox_wasnt_FULL.mp3","response":0,"test_part":"test","phrase":"1b_natural_the_inbox_wasnt_FULL","trial_type":"audio-button-response","trial_index":28,"time_elapsed":100533,"internal_node_id":"0.0-2.0-0.12"},{"rt":3285,"stimulus":"audio/Ab_natural_Ken_didnt_feed_the_CAT.mp3","response":0,"test_part":"test","phrase":"Ab_natural_Ken_didnt_feed_the_CAT","trial_type":"audio-button-response","trial_index":30,"time_elapsed":105514,"internal_node_id":"0.0-2.0-0.13"},{"rt":4256,"stimulus":"audio/3b_natural_Susan_didnt_get_ONE_credit.mp3","response":1,"test_part":"test","phrase":"3b_natural_Susan_didnt_get_ONE_credit","trial_type":"audio-button-response","trial_index":32,"time_elapsed":111660,"internal_node_id":"0.0-2.0-0.14"},{"rt":5120,"stimulus":"audio/1b_demo_the_inbox_wasnt_FULL.mp3","response":0,"test_part":"test","phrase":"1b_demo_the_inbox_wasnt_FULL","trial_type":"audio-button-response","trial_index":34,"time_elapsed":119894,"internal_node_id":"0.0-2.0-0.15"},{"rt":4139,"stimulus":"audio/Ab_demo_Ken_didnt_feed_the_CAT.mp3","response":1,"test_part":"test","phrase":"Ab_demo_Ken_didnt_feed_the_CAT","trial_type":"audio-button-response","trial_index":36,"time_elapsed":126534,"internal_node_id":"0.0-2.0-0.16"},{"rt":3627,"stimulus":"audio/Ca_natural_Nick_doesnt_listen_to_anyone.mp3","response":0,"test_part":"test","phrase":"Ca_natural_Nick_doesnt_listen_to_anyone","trial_type":"audio-button-response","trial_index":38,"time_elapsed":134954,"internal_node_id":"0.0-2.0-0.17"},{"rt":3509,"stimulus":"audio/Ea_natural_We_didnt_get_one_Christmas_card.mp3","response":0,"test_part":"test","phrase":"Ea_natural_We_didnt_get_one_Christmas_card","trial_type":"audio-button-response","trial_index":40,"time_elapsed":139953,"internal_node_id":"0.0-2.0-0.18"},{"rt":3051,"stimulus":"audio/4a_demo_Thomas_didnt_see_Patrick.mp3","response":1,"test_part":"test","phrase":"4a_demo_Thomas_didnt_see_Patrick","trial_type":"audio-button-response","trial_index":42,"time_elapsed":145131,"internal_node_id":"0.0-2.0-0.19"},{"rt":3211,"stimulus":"audio/5a_demo_the_food_didnt_taste_good.mp3","response":0,"test_part":"test","phrase":"5a_demo_the_food_didnt_taste_good","trial_type":"audio-button-response","trial_index":44,"time_elapsed":149488,"internal_node_id":"0.0-2.0-0.20"},{"rt":2891,"stimulus":"audio/Ea_demo_We_didnt_get_one_Christmas_card.mp3","response":0,"test_part":"test","phrase":"Ea_demo_We_didnt_get_one_Christmas_card","trial_type":"audio-button-response","trial_index":46,"time_elapsed":153462,"internal_node_id":"0.0-2.0-0.21"},{"rt":2091,"stimulus":"audio/Da_natural_Mary_doesnt_like_ice_cream.mp3","response":0,"test_part":"test","phrase":"Da_natural_Mary_doesnt_like_ice_cream","trial_type":"audio-button-response","trial_index":48,"time_elapsed":156406,"internal_node_id":"0.0-2.0-0.22"},{"rt":4661,"stimulus":"audio/2a_natural_Peter_wont_eat_anything.mp3","response":0,"test_part":"test","phrase":"2a_natural_Peter_wont_eat_anything","trial_type":"audio-button-response","trial_index":50,"time_elapsed":164019,"internal_node_id":"0.0-2.0-0.23"},{"rt":2539,"stimulus":"audio/Da_demo_Mary_doesnt_like_ice_cream.mp3","response":0,"test_part":"test","phrase":"Da_demo_Mary_doesnt_like_ice_cream","trial_type":"audio-button-response","trial_index":52,"time_elapsed":168796,"internal_node_id":"0.0-2.0-0.24"},{"rt":3893,"stimulus":"audio/2b_natural_Peter_wont_eat_ANYTHING.mp3","response":0,"test_part":"test","phrase":"2b_natural_Peter_wont_eat_ANYTHING","trial_type":"audio-button-response","trial_index":54,"time_elapsed":174489,"internal_node_id":"0.0-2.0-0.25"},{"rt":3669,"stimulus":"audio/Db_natural_Mary_doesnt_LIKE_ice_cream.mp3","response":0,"test_part":"test","phrase":"Db_natural_Mary_doesnt_LIKE_ice_cream","trial_type":"audio-button-response","trial_index":56,"time_elapsed":180352,"internal_node_id":"0.0-2.0-0.26"},{"rt":3477,"stimulus":"audio/3a_demo_Susan_didnt_get_one_credit.mp3","response":0,"test_part":"test","phrase":"3a_demo_Susan_didnt_get_one_credit","trial_type":"audio-button-response","trial_index":58,"time_elapsed":187308,"internal_node_id":"0.0-2.0-0.27"},{"rt":2528,"stimulus":"audio/2a_demo_Peter_wont_eat_anything.mp3","response":0,"test_part":"test","phrase":"2a_demo_Peter_wont_eat_anything","trial_type":"audio-button-response","trial_index":60,"time_elapsed":191512,"internal_node_id":"0.0-2.0-0.28"},{"rt":2240,"stimulus":"audio/1a_demo_the_inbox_wasnt_full.mp3","response":1,"test_part":"test","phrase":"1a_demo_the_inbox_wasnt_full","trial_type":"audio-button-response","trial_index":62,"time_elapsed":194784,"internal_node_id":"0.0-2.0-0.29"},{"rt":2837,"stimulus":"audio/9b_natural_Arthur_wasnt_TIPSY.mp3","response":0,"test_part":"test","phrase":"9b_natural_Arthur_wasnt_TIPSY","trial_type":"audio-button-response","trial_index":64,"time_elapsed":198826,"internal_node_id":"0.0-2.0-0.30"},{"rt":4501,"stimulus":"audio/5a_natural_the_food_didnt_taste_good.mp3","response":0,"test_part":"test","phrase":"5a_natural_the_food_didnt_taste_good","trial_type":"audio-button-response","trial_index":66,"time_elapsed":205067,"internal_node_id":"0.0-2.0-0.31"},{"rt":2133,"stimulus":"audio/9a_natural_Arthur_wasnt_tipsy.mp3","response":0,"test_part":"test","phrase":"9a_natural_Arthur_wasnt_tipsy","trial_type":"audio-button-response","trial_index":68,"time_elapsed":208566,"internal_node_id":"0.0-2.0-0.32"},{"rt":1387,"stimulus":"audio/Eb_natural_We_didnt_get_ONE_Christmas_card.mp3","response":0,"test_part":"test","phrase":"Eb_natural_We_didnt_get_ONE_Christmas_card","trial_type":"audio-button-response","trial_index":70,"time_elapsed":211264,"internal_node_id":"0.0-2.0-0.33"},{"rt":2101,"stimulus":"audio/3a_natural_Susan_didnt_get_one_credit.mp3","response":0,"test_part":"test","phrase":"3a_natural_Susan_didnt_get_one_credit","trial_type":"audio-button-response","trial_index":72,"time_elapsed":214201,"internal_node_id":"0.0-2.0-0.34"},{"rt":1877,"stimulus":"audio/2b_demo_Peter_wont_eat_ANYTHING.mp3","response":0,"test_part":"test","phrase":"2b_demo_Peter_wont_eat_ANYTHING","trial_type":"audio-button-response","trial_index":74,"time_elapsed":216922,"internal_node_id":"0.0-2.0-0.35"},{"rt":2389,"stimulus":"audio/Ca_demo_Nick_doesnt_listen_to_anyone.mp3","response":0,"test_part":"test","phrase":"Ca_demo_Nick_doesnt_listen_to_anyone","trial_type":"audio-button-response","trial_index":76,"time_elapsed":220620,"internal_node_id":"0.0-2.0-0.36"},{"rt":5440,"stimulus":"audio/9b_demo_Arthur_wasnt_TIPSY.mp3","response":0,"test_part":"test","phrase":"9b_demo_Arthur_wasnt_TIPSY","trial_type":"audio-button-response","trial_index":78,"time_elapsed":227232,"internal_node_id":"0.0-2.0-0.37"},{"rt":2560,"stimulus":"audio/Db_demo_Mary_doesnt_LIKE_ice_cream.mp3","response":0,"test_part":"test","phrase":"Db_demo_Mary_doesnt_LIKE_ice_cream","trial_type":"audio-button-response","trial_index":80,"time_elapsed":231734,"internal_node_id":"0.0-2.0-0.38"},{"rt":2453,"stimulus":"audio/Aa_natural_Ken_didnt_feed_the_cat.mp3","response":0,"test_part":"test","phrase":"Aa_natural_Ken_didnt_feed_the_cat","trial_type":"audio-button-response","trial_index":82,"time_elapsed":235553,"internal_node_id":"0.0-2.0-0.39"}]