[{"rt":4461,"stimulus":"audio/Eb_natural_We_didnt_get_ONE_Christmas_card.mp3","response":2,"test_part":"test","phrase":"Eb_natural_We_didnt_get_ONE_Christmas_card","trial_type":"audio-button-response","trial_index":2,"time_elapsed":6031,"internal_node_id":"0.0-2.0-0.0"},{"rt":6832,"stimulus":"audio/Eb_natural_We_didnt_get_ONE_Christmas_card.mp3","response":1,"test_part":"test","phrase":"Eb_natural_We_didnt_get_ONE_Christmas_card","trial_type":"audio-button-response","trial_index":3,"time_elapsed":12864,"internal_node_id":"0.0-2.0-1.0-0.0"},{"rt":5851,"stimulus":"audio/Aa_demo_Ken_didnt_feed_the_cat.mp3","response":0,"test_part":"test","phrase":"Aa_demo_Ken_didnt_feed_the_cat","trial_type":"audio-button-response","trial_index":5,"time_elapsed":20507,"internal_node_id":"0.0-2.0-0.1"},{"rt":3994,"stimulus":"audio/Cb_natural_Nick_doesnt_listen_to_ANYONE.mp3","response":2,"test_part":"test","phrase":"Cb_natural_Nick_doesnt_listen_to_ANYONE","trial_type":"audio-button-response","trial_index":7,"time_elapsed":26041,"internal_node_id":"0.0-2.0-0.2"},{"rt":8060,"stimulus":"audio/Cb_natural_Nick_doesnt_listen_to_ANYONE.mp3","response":1,"test_part":"test","phrase":"Cb_natural_Nick_doesnt_listen_to_ANYONE","trial_type":"audio-button-response","trial_index":8,"time_elapsed":34102,"internal_node_id":"0.0-2.0-1.2-0.2"},{"rt":7195,"stimulus":"audio/1b_demo_the_inbox_wasnt_FULL.mp3","response":1,"test_part":"test","phrase":"1b_demo_the_inbox_wasnt_FULL","trial_type":"audio-button-response","trial_index":10,"time_elapsed":42751,"internal_node_id":"0.0-2.0-0.3"},{"rt":3123,"stimulus":"audio/Aa_natural_Ken_didnt_feed_the_cat.mp3","response":0,"test_part":"test","phrase":"Aa_natural_Ken_didnt_feed_the_cat","trial_type":"audio-button-response","trial_index":12,"time_elapsed":48107,"internal_node_id":"0.0-2.0-0.4"},{"rt":7187,"stimulus":"audio/9a_demo_Arthur_wasnt_tipsy.mp3","response":0,"test_part":"test","phrase":"9a_demo_Arthur_wasnt_tipsy","trial_type":"audio-button-response","trial_index":14,"time_elapsed":57301,"internal_node_id":"0.0-2.0-0.5"},{"rt":3268,"stimulus":"audio/Ea_demo_We_didnt_get_one_Christmas_card.mp3","response":2,"test_part":"test","phrase":"Ea_demo_We_didnt_get_one_Christmas_card","trial_type":"audio-button-response","trial_index":16,"time_elapsed":64500,"internal_node_id":"0.0-2.0-0.6"},{"rt":2345,"stimulus":"audio/Ea_demo_We_didnt_get_one_Christmas_card.mp3","response":0,"test_part":"test","phrase":"Ea_demo_We_didnt_get_one_Christmas_card","trial_type":"audio-button-response","trial_index":17,"time_elapsed":66847,"internal_node_id":"0.0-2.0-1.6-0.6"},{"rt":2891,"stimulus":"audio/3a_natural_Susan_didnt_get_one_credit.mp3","response":0,"test_part":"test","phrase":"3a_natural_Susan_didnt_get_one_credit","trial_type":"audio-button-response","trial_index":19,"time_elapsed":72597,"internal_node_id":"0.0-2.0-0.7"},{"rt":3509,"stimulus":"audio/4b_natural_Thomas_didnt_see_PATRICK.mp3","response":1,"test_part":"test","phrase":"4b_natural_Thomas_didnt_see_PATRICK","trial_type":"audio-button-response","trial_index":21,"time_elapsed":78362,"internal_node_id":"0.0-2.0-0.8"},{"rt":3686,"stimulus":"audio/3b_natural_Susan_didnt_get_ONE_credit.mp3","response":2,"test_part":"test","phrase":"3b_natural_Susan_didnt_get_ONE_credit","trial_type":"audio-button-response","trial_index":23,"time_elapsed":83782,"internal_node_id":"0.0-2.0-0.9"},{"rt":3802,"stimulus":"audio/3b_natural_Susan_didnt_get_ONE_credit.mp3","response":1,"test_part":"test","phrase":"3b_natural_Susan_didnt_get_ONE_credit","trial_type":"audio-button-response","trial_index":24,"time_elapsed":87586,"internal_node_id":"0.0-2.0-1.9-0.9"},{"rt":3370,"stimulus":"audio/Ea_natural_We_didnt_get_one_Christmas_card.mp3","response":0,"test_part":"test","phrase":"Ea_natural_We_didnt_get_one_Christmas_card","trial_type":"audio-button-response","trial_index":26,"time_elapsed":94137,"internal_node_id":"0.0-2.0-0.10"},{"rt":3692,"stimulus":"audio/Db_demo_Mary_doesnt_LIKE_ice_cream.mp3","response":2,"test_part":"test","phrase":"Db_demo_Mary_doesnt_LIKE_ice_cream","trial_type":"audio-button-response","trial_index":28,"time_elapsed":100919,"internal_node_id":"0.0-2.0-0.11"},{"rt":1306,"stimulus":"audio/Db_demo_Mary_doesnt_LIKE_ice_cream.mp3","response":1,"test_part":"test","phrase":"Db_demo_Mary_doesnt_LIKE_ice_cream","trial_type":"audio-button-response","trial_index":29,"time_elapsed":102227,"internal_node_id":"0.0-2.0-1.11-0.11"},{"rt":2720,"stimulus":"audio/5b_demo_the_food_didnt_taste_GOOD.mp3","response":1,"test_part":"test","phrase":"5b_demo_the_food_didnt_taste_GOOD","trial_type":"audio-button-response","trial_index":31,"time_elapsed":107146,"internal_node_id":"0.0-2.0-0.12"},{"rt":2502,"stimulus":"audio/2b_natural_Peter_wont_eat_ANYTHING.mp3","response":0,"test_part":"test","phrase":"2b_natural_Peter_wont_eat_ANYTHING","trial_type":"audio-button-response","trial_index":33,"time_elapsed":111565,"internal_node_id":"0.0-2.0-0.13"},{"rt":4856,"stimulus":"audio/Eb_demo_We_didnt_get_ONE_Christmas_card.mp3","response":2,"test_part":"test","phrase":"Eb_demo_We_didnt_get_ONE_Christmas_card","trial_type":"audio-button-response","trial_index":35,"time_elapsed":119173,"internal_node_id":"0.0-2.0-0.14"},{"rt":4830,"stimulus":"audio/Eb_demo_We_didnt_get_ONE_Christmas_card.mp3","response":1,"test_part":"test","phrase":"Eb_demo_We_didnt_get_ONE_Christmas_card","trial_type":"audio-button-response","trial_index":36,"time_elapsed":124005,"internal_node_id":"0.0-2.0-1.14-0.14"},{"rt":2470,"stimulus":"audio/Da_natural_Mary_doesnt_like_ice_cream.mp3","response":0,"test_part":"test","phrase":"Da_natural_Mary_doesnt_like_ice_cream","trial_type":"audio-button-response","trial_index":38,"time_elapsed":128863,"internal_node_id":"0.0-2.0-0.15"},{"rt":2833,"stimulus":"audio/Ab_demo_Ken_didnt_feed_the_CAT.mp3","response":1,"test_part":"test","phrase":"Ab_demo_Ken_didnt_feed_the_CAT","trial_type":"audio-button-response","trial_index":40,"time_elapsed":134023,"internal_node_id":"0.0-2.0-0.16"},{"rt":2171,"stimulus":"audio/2a_natural_Peter_wont_eat_anything.mp3","response":0,"test_part":"test","phrase":"2a_natural_Peter_wont_eat_anything","trial_type":"audio-button-response","trial_index":42,"time_elapsed":138915,"internal_node_id":"0.0-2.0-0.17"},{"rt":2589,"stimulus":"audio/9a_natural_Arthur_wasnt_tipsy.mp3","response":0,"test_part":"test","phrase":"9a_natural_Arthur_wasnt_tipsy","trial_type":"audio-button-response","trial_index":44,"time_elapsed":144553,"internal_node_id":"0.0-2.0-0.18"},{"rt":1997,"stimulus":"audio/2a_demo_Peter_wont_eat_anything.mp3","response":1,"test_part":"test","phrase":"2a_demo_Peter_wont_eat_anything","trial_type":"audio-button-response","trial_index":46,"time_elapsed":148663,"internal_node_id":"0.0-2.0-0.19"},{"rt":4174,"stimulus":"audio/3a_demo_Susan_didnt_get_one_credit.mp3","response":0,"test_part":"test","phrase":"3a_demo_Susan_didnt_get_one_credit","trial_type":"audio-button-response","trial_index":48,"time_elapsed":155515,"internal_node_id":"0.0-2.0-0.20"},{"rt":2220,"stimulus":"audio/2b_demo_Peter_wont_eat_ANYTHING.mp3","response":1,"test_part":"test","phrase":"2b_demo_Peter_wont_eat_ANYTHING","trial_type":"audio-button-response","trial_index":50,"time_elapsed":160018,"internal_node_id":"0.0-2.0-0.21"},{"rt":2522,"stimulus":"audio/5a_natural_the_food_didnt_taste_good.mp3","response":0,"test_part":"test","phrase":"5a_natural_the_food_didnt_taste_good","trial_type":"audio-button-response","trial_index":52,"time_elapsed":164225,"internal_node_id":"0.0-2.0-0.22"},{"rt":2615,"stimulus":"audio/Ca_natural_Nick_doesnt_listen_to_anyone.mp3","response":0,"test_part":"test","phrase":"Ca_natural_Nick_doesnt_listen_to_anyone","trial_type":"audio-button-response","trial_index":54,"time_elapsed":168373,"internal_node_id":"0.0-2.0-0.23"},{"rt":3387,"stimulus":"audio/Da_demo_Mary_doesnt_like_ice_cream.mp3","response":2,"test_part":"test","phrase":"Da_demo_Mary_doesnt_like_ice_cream","trial_type":"audio-button-response","trial_index":56,"time_elapsed":173013,"internal_node_id":"0.0-2.0-0.24"},{"rt":1080,"stimulus":"audio/Da_demo_Mary_doesnt_like_ice_cream.mp3","response":1,"test_part":"test","phrase":"Da_demo_Mary_doesnt_like_ice_cream","trial_type":"audio-button-response","trial_index":57,"time_elapsed":174095,"internal_node_id":"0.0-2.0-1.24-0.24"},{"rt":2354,"stimulus":"audio/1a_natural_the_inbox_wasnt_full.mp3","response":0,"test_part":"test","phrase":"1a_natural_the_inbox_wasnt_full","trial_type":"audio-button-response","trial_index":59,"time_elapsed":180260,"internal_node_id":"0.0-2.0-0.25"},{"rt":2577,"stimulus":"audio/Cb_demo_Nick_doesnt_listen_to_ANYONE.mp3","response":1,"test_part":"test","phrase":"Cb_demo_Nick_doesnt_listen_to_ANYONE","trial_type":"audio-button-response","trial_index":61,"time_elapsed":185258,"internal_node_id":"0.0-2.0-0.26"},{"rt":7338,"stimulus":"audio/1a_demo_the_inbox_wasnt_full.mp3","response":2,"test_part":"test","phrase":"1a_demo_the_inbox_wasnt_full","trial_type":"audio-button-response","trial_index":63,"time_elapsed":194900,"internal_node_id":"0.0-2.0-0.27"},{"rt":3892,"stimulus":"audio/1a_demo_the_inbox_wasnt_full.mp3","response":0,"test_part":"test","phrase":"1a_demo_the_inbox_wasnt_full","trial_type":"audio-button-response","trial_index":64,"time_elapsed":198795,"internal_node_id":"0.0-2.0-1.27-0.27"},{"rt":3062,"stimulus":"audio/Ca_demo_Nick_doesnt_listen_to_anyone.mp3","response":2,"test_part":"test","phrase":"Ca_demo_Nick_doesnt_listen_to_anyone","trial_type":"audio-button-response","trial_index":66,"time_elapsed":205728,"internal_node_id":"0.0-2.0-0.28"},{"rt":2183,"stimulus":"audio/Ca_demo_Nick_doesnt_listen_to_anyone.mp3","response":0,"test_part":"test","phrase":"Ca_demo_Nick_doesnt_listen_to_anyone","trial_type":"audio-button-response","trial_index":67,"time_elapsed":207911,"internal_node_id":"0.0-2.0-1.28-0.28"},{"rt":2403,"stimulus":"audio/4a_natural_Thomas_didnt_see_Patrick.mp3","response":0,"test_part":"test","phrase":"4a_natural_Thomas_didnt_see_Patrick","trial_type":"audio-button-response","trial_index":69,"time_elapsed":212846,"internal_node_id":"0.0-2.0-0.29"},{"rt":2516,"stimulus":"audio/5b_natural_the_food_didnt_taste_GOOD.mp3","response":1,"test_part":"test","phrase":"5b_natural_the_food_didnt_taste_GOOD","trial_type":"audio-button-response","trial_index":71,"time_elapsed":217791,"internal_node_id":"0.0-2.0-0.30"},{"rt":2749,"stimulus":"audio/9b_natural_Arthur_wasnt_TIPSY.mp3","response":0,"test_part":"test","phrase":"9b_natural_Arthur_wasnt_TIPSY","trial_type":"audio-button-response","trial_index":73,"time_elapsed":223033,"internal_node_id":"0.0-2.0-0.31"},{"rt":3048,"stimulus":"audio/3b_demo_Susan_didnt_get_ONE_credit.mp3","response":1,"test_part":"test","phrase":"3b_demo_Susan_didnt_get_ONE_credit","trial_type":"audio-button-response","trial_index":75,"time_elapsed":228846,"internal_node_id":"0.0-2.0-0.32"},{"rt":4856,"stimulus":"audio/4a_demo_Thomas_didnt_see_Patrick.mp3","response":1,"test_part":"test","phrase":"4a_demo_Thomas_didnt_see_Patrick","trial_type":"audio-button-response","trial_index":77,"time_elapsed":236307,"internal_node_id":"0.0-2.0-0.33"},{"rt":2586,"stimulus":"audio/Ab_natural_Ken_didnt_feed_the_CAT.mp3","response":1,"test_part":"test","phrase":"Ab_natural_Ken_didnt_feed_the_CAT","trial_type":"audio-button-response","trial_index":79,"time_elapsed":240849,"internal_node_id":"0.0-2.0-0.34"},{"rt":2862,"stimulus":"audio/9b_demo_Arthur_wasnt_TIPSY.mp3","response":1,"test_part":"test","phrase":"9b_demo_Arthur_wasnt_TIPSY","trial_type":"audio-button-response","trial_index":81,"time_elapsed":244806,"internal_node_id":"0.0-2.0-0.35"},{"rt":3033,"stimulus":"audio/1b_natural_the_inbox_wasnt_FULL.mp3","response":2,"test_part":"test","phrase":"1b_natural_the_inbox_wasnt_FULL","trial_type":"audio-button-response","trial_index":83,"time_elapsed":249319,"internal_node_id":"0.0-2.0-0.36"},{"rt":2212,"stimulus":"audio/1b_natural_the_inbox_wasnt_FULL.mp3","response":0,"test_part":"test","phrase":"1b_natural_the_inbox_wasnt_FULL","trial_type":"audio-button-response","trial_index":84,"time_elapsed":251531,"internal_node_id":"0.0-2.0-1.36-0.36"},{"rt":2337,"stimulus":"audio/4b_demo_Thomas_didnt_see_PATRICK.mp3","response":1,"test_part":"test","phrase":"4b_demo_Thomas_didnt_see_PATRICK","trial_type":"audio-button-response","trial_index":86,"time_elapsed":256233,"internal_node_id":"0.0-2.0-0.37"},{"rt":3660,"stimulus":"audio/5a_demo_the_food_didnt_taste_good.mp3","response":2,"test_part":"test","phrase":"5a_demo_the_food_didnt_taste_good","trial_type":"audio-button-response","trial_index":88,"time_elapsed":261045,"internal_node_id":"0.0-2.0-0.38"},{"rt":3138,"stimulus":"audio/5a_demo_the_food_didnt_taste_good.mp3","response":0,"test_part":"test","phrase":"5a_demo_the_food_didnt_taste_good","trial_type":"audio-button-response","trial_index":89,"time_elapsed":264185,"internal_node_id":"0.0-2.0-1.38-0.38"},{"rt":2644,"stimulus":"audio/Db_natural_Mary_doesnt_LIKE_ice_cream.mp3","response":2,"test_part":"test","phrase":"Db_natural_Mary_doesnt_LIKE_ice_cream","trial_type":"audio-button-response","trial_index":91,"time_elapsed":268280,"internal_node_id":"0.0-2.0-0.39"},{"rt":3631,"stimulus":"audio/Db_natural_Mary_doesnt_LIKE_ice_cream.mp3","response":0,"test_part":"test","phrase":"Db_natural_Mary_doesnt_LIKE_ice_cream","trial_type":"audio-button-response","trial_index":92,"time_elapsed":271912,"internal_node_id":"0.0-2.0-1.39-0.39"}]