[{"rt":3556,"stimulus":"audio/9a_demo_Arthur_wasnt_tipsy.mp3","response":2,"test_part":"test","phrase":"9a_demo_Arthur_wasnt_tipsy","trial_type":"audio-button-response","trial_index":2,"time_elapsed":12817362,"internal_node_id":"0.0-2.0-0.0"},{"rt":12501,"stimulus":"audio/9a_demo_Arthur_wasnt_tipsy.mp3","response":0,"test_part":"test","phrase":"9a_demo_Arthur_wasnt_tipsy","trial_type":"audio-button-response","trial_index":3,"time_elapsed":12829864,"internal_node_id":"0.0-2.0-1.0-0.0"},{"rt":4249,"stimulus":"audio/Ab_natural_Ken_didnt_feed_the_CAT.mp3","response":0,"test_part":"test","phrase":"Ab_natural_Ken_didnt_feed_the_CAT","trial_type":"audio-button-response","trial_index":5,"time_elapsed":12841909,"internal_node_id":"0.0-2.0-0.1"},{"rt":7108,"stimulus":"audio/4b_natural_Thomas_didnt_see_PATRICK.mp3","response":0,"test_part":"test","phrase":"4b_natural_Thomas_didnt_see_PATRICK","trial_type":"audio-button-response","trial_index":7,"time_elapsed":12851258,"internal_node_id":"0.0-2.0-0.2"},{"rt":2871,"stimulus":"audio/2b_natural_Peter_wont_eat_ANYTHING.mp3","response":0,"test_part":"test","phrase":"2b_natural_Peter_wont_eat_ANYTHING","trial_type":"audio-button-response","trial_index":9,"time_elapsed":12855321,"internal_node_id":"0.0-2.0-0.3"},{"rt":5642,"stimulus":"audio/9b_demo_Arthur_wasnt_TIPSY.mp3","response":0,"test_part":"test","phrase":"9b_demo_Arthur_wasnt_TIPSY","trial_type":"audio-button-response","trial_index":11,"time_elapsed":12863228,"internal_node_id":"0.0-2.0-0.4"},{"rt":106408,"stimulus":"audio/1a_demo_the_inbox_wasnt_full.mp3","response":2,"test_part":"test","phrase":"1a_demo_the_inbox_wasnt_full","trial_type":"audio-button-response","trial_index":13,"time_elapsed":13678297,"internal_node_id":"0.0-2.0-0.5"},{"rt":1652,"stimulus":"audio/1a_demo_the_inbox_wasnt_full.mp3","response":0,"test_part":"test","phrase":"1a_demo_the_inbox_wasnt_full","trial_type":"audio-button-response","trial_index":14,"time_elapsed":13679953,"internal_node_id":"0.0-2.0-1.5-0.5"},{"rt":2580,"stimulus":"audio/Db_natural_Mary_doesnt_LIKE_ice_cream.mp3","response":0,"test_part":"test","phrase":"Db_natural_Mary_doesnt_LIKE_ice_cream","trial_type":"audio-button-response","trial_index":16,"time_elapsed":13685516,"internal_node_id":"0.0-2.0-0.6"},{"rt":4833,"stimulus":"audio/Ea_natural_We_didnt_get_one_Christmas_card.mp3","response":1,"test_part":"test","phrase":"Ea_natural_We_didnt_get_one_Christmas_card","trial_type":"audio-button-response","trial_index":18,"time_elapsed":13692271,"internal_node_id":"0.0-2.0-0.7"},{"rt":2830,"stimulus":"audio/9b_natural_Arthur_wasnt_TIPSY.mp3","response":0,"test_part":"test","phrase":"9b_natural_Arthur_wasnt_TIPSY","trial_type":"audio-button-response","trial_index":20,"time_elapsed":13697641,"internal_node_id":"0.0-2.0-0.8"},{"rt":2560,"stimulus":"audio/Ea_demo_We_didnt_get_one_Christmas_card.mp3","response":1,"test_part":"test","phrase":"Ea_demo_We_didnt_get_one_Christmas_card","trial_type":"audio-button-response","trial_index":22,"time_elapsed":13702770,"internal_node_id":"0.0-2.0-0.9"},{"rt":2183,"stimulus":"audio/2a_natural_Peter_wont_eat_anything.mp3","response":0,"test_part":"test","phrase":"2a_natural_Peter_wont_eat_anything","trial_type":"audio-button-response","trial_index":24,"time_elapsed":13706220,"internal_node_id":"0.0-2.0-0.10"},{"rt":4804,"stimulus":"audio/3a_demo_Susan_didnt_get_one_credit.mp3","response":0,"test_part":"test","phrase":"3a_demo_Susan_didnt_get_one_credit","trial_type":"audio-button-response","trial_index":26,"time_elapsed":13712292,"internal_node_id":"0.0-2.0-0.11"},{"rt":2223,"stimulus":"audio/1a_natural_the_inbox_wasnt_full.mp3","response":0,"test_part":"test","phrase":"1a_natural_the_inbox_wasnt_full","trial_type":"audio-button-response","trial_index":28,"time_elapsed":13716376,"internal_node_id":"0.0-2.0-0.12"},{"rt":1982,"stimulus":"audio/Db_demo_Mary_doesnt_LIKE_ice_cream.mp3","response":0,"test_part":"test","phrase":"Db_demo_Mary_doesnt_LIKE_ice_cream","trial_type":"audio-button-response","trial_index":30,"time_elapsed":13720547,"internal_node_id":"0.0-2.0-0.13"},{"rt":7831,"stimulus":"audio/Ca_demo_Nick_doesnt_listen_to_anyone.mp3","response":0,"test_part":"test","phrase":"Ca_demo_Nick_doesnt_listen_to_anyone","trial_type":"audio-button-response","trial_index":32,"time_elapsed":13730131,"internal_node_id":"0.0-2.0-0.14"},{"rt":2949,"stimulus":"audio/3b_natural_Susan_didnt_get_ONE_credit.mp3","response":0,"test_part":"test","phrase":"3b_natural_Susan_didnt_get_ONE_credit","trial_type":"audio-button-response","trial_index":34,"time_elapsed":13736006,"internal_node_id":"0.0-2.0-0.15"},{"rt":29492,"stimulus":"audio/2b_demo_Peter_wont_eat_ANYTHING.mp3","response":2,"test_part":"test","phrase":"2b_demo_Peter_wont_eat_ANYTHING","trial_type":"audio-button-response","trial_index":36,"time_elapsed":13767243,"internal_node_id":"0.0-2.0-0.16"},{"rt":1869,"stimulus":"audio/2b_demo_Peter_wont_eat_ANYTHING.mp3","response":0,"test_part":"test","phrase":"2b_demo_Peter_wont_eat_ANYTHING","trial_type":"audio-button-response","trial_index":37,"time_elapsed":13769116,"internal_node_id":"0.0-2.0-1.16-0.16"},{"rt":5959,"stimulus":"audio/Cb_demo_Nick_doesnt_listen_to_ANYONE.mp3","response":0,"test_part":"test","phrase":"Cb_demo_Nick_doesnt_listen_to_ANYONE","trial_type":"audio-button-response","trial_index":39,"time_elapsed":13776840,"internal_node_id":"0.0-2.0-0.17"},{"rt":1643,"stimulus":"audio/1b_natural_the_inbox_wasnt_FULL.mp3","response":0,"test_part":"test","phrase":"1b_natural_the_inbox_wasnt_FULL","trial_type":"audio-button-response","trial_index":41,"time_elapsed":13780025,"internal_node_id":"0.0-2.0-0.18"},{"rt":5361,"stimulus":"audio/3a_natural_Susan_didnt_get_one_credit.mp3","response":0,"test_part":"test","phrase":"3a_natural_Susan_didnt_get_one_credit","trial_type":"audio-button-response","trial_index":43,"time_elapsed":13803671,"internal_node_id":"0.0-2.0-0.19"},{"rt":2357,"stimulus":"audio/Aa_natural_Ken_didnt_feed_the_cat.mp3","response":0,"test_part":"test","phrase":"Aa_natural_Ken_didnt_feed_the_cat","trial_type":"audio-button-response","trial_index":45,"time_elapsed":13807577,"internal_node_id":"0.0-2.0-0.20"},{"rt":21357,"stimulus":"audio/3b_demo_Susan_didnt_get_ONE_credit.mp3","response":2,"test_part":"test","phrase":"3b_demo_Susan_didnt_get_ONE_credit","trial_type":"audio-button-response","trial_index":47,"time_elapsed":13830601,"internal_node_id":"0.0-2.0-0.21"},{"rt":3303,"stimulus":"audio/3b_demo_Susan_didnt_get_ONE_credit.mp3","response":0,"test_part":"test","phrase":"3b_demo_Susan_didnt_get_ONE_credit","trial_type":"audio-button-response","trial_index":48,"time_elapsed":13833906,"internal_node_id":"0.0-2.0-1.21-0.21"},{"rt":2305,"stimulus":"audio/5a_demo_the_food_didnt_taste_good.mp3","response":0,"test_part":"test","phrase":"5a_demo_the_food_didnt_taste_good","trial_type":"audio-button-response","trial_index":50,"time_elapsed":13853211,"internal_node_id":"0.0-2.0-0.22"},{"rt":2345,"stimulus":"audio/Da_natural_Mary_doesnt_like_ice_cream.mp3","response":0,"test_part":"test","phrase":"Da_natural_Mary_doesnt_like_ice_cream","trial_type":"audio-button-response","trial_index":52,"time_elapsed":13856583,"internal_node_id":"0.0-2.0-0.23"},{"rt":2824,"stimulus":"audio/4b_demo_Thomas_didnt_see_PATRICK.mp3","response":0,"test_part":"test","phrase":"4b_demo_Thomas_didnt_see_PATRICK","trial_type":"audio-button-response","trial_index":54,"time_elapsed":13860570,"internal_node_id":"0.0-2.0-0.24"},{"rt":12658,"stimulus":"audio/Eb_demo_We_didnt_get_ONE_Christmas_card.mp3","response":1,"test_part":"test","phrase":"Eb_demo_We_didnt_get_ONE_Christmas_card","trial_type":"audio-button-response","trial_index":56,"time_elapsed":13874197,"internal_node_id":"0.0-2.0-0.25"},{"rt":1457,"stimulus":"audio/Ca_natural_Nick_doesnt_listen_to_anyone.mp3","response":0,"test_part":"test","phrase":"Ca_natural_Nick_doesnt_listen_to_anyone","trial_type":"audio-button-response","trial_index":58,"time_elapsed":13878088,"internal_node_id":"0.0-2.0-0.26"},{"rt":2226,"stimulus":"audio/2a_demo_Peter_wont_eat_anything.mp3","response":0,"test_part":"test","phrase":"2a_demo_Peter_wont_eat_anything","trial_type":"audio-button-response","trial_index":60,"time_elapsed":13881194,"internal_node_id":"0.0-2.0-0.27"},{"rt":1808,"stimulus":"audio/1b_demo_the_inbox_wasnt_FULL.mp3","response":0,"test_part":"test","phrase":"1b_demo_the_inbox_wasnt_FULL","trial_type":"audio-button-response","trial_index":62,"time_elapsed":13884010,"internal_node_id":"0.0-2.0-0.28"},{"rt":1242,"stimulus":"audio/Cb_natural_Nick_doesnt_listen_to_ANYONE.mp3","response":0,"test_part":"test","phrase":"Cb_natural_Nick_doesnt_listen_to_ANYONE","trial_type":"audio-button-response","trial_index":64,"time_elapsed":13886766,"internal_node_id":"0.0-2.0-0.29"},{"rt":1254,"stimulus":"audio/5b_demo_the_food_didnt_taste_GOOD.mp3","response":0,"test_part":"test","phrase":"5b_demo_the_food_didnt_taste_GOOD","trial_type":"audio-button-response","trial_index":66,"time_elapsed":13888406,"internal_node_id":"0.0-2.0-0.30"},{"rt":1083,"stimulus":"audio/Aa_demo_Ken_didnt_feed_the_cat.mp3","response":0,"test_part":"test","phrase":"Aa_demo_Ken_didnt_feed_the_cat","trial_type":"audio-button-response","trial_index":68,"time_elapsed":13890239,"internal_node_id":"0.0-2.0-0.31"},{"rt":1370,"stimulus":"audio/9a_natural_Arthur_wasnt_tipsy.mp3","response":0,"test_part":"test","phrase":"9a_natural_Arthur_wasnt_tipsy","trial_type":"audio-button-response","trial_index":70,"time_elapsed":13892431,"internal_node_id":"0.0-2.0-0.32"},{"rt":935,"stimulus":"audio/Ab_demo_Ken_didnt_feed_the_CAT.mp3","response":0,"test_part":"test","phrase":"Ab_demo_Ken_didnt_feed_the_CAT","trial_type":"audio-button-response","trial_index":72,"time_elapsed":13894008,"internal_node_id":"0.0-2.0-0.33"},{"rt":1353,"stimulus":"audio/5a_natural_the_food_didnt_taste_good.mp3","response":0,"test_part":"test","phrase":"5a_natural_the_food_didnt_taste_good","trial_type":"audio-button-response","trial_index":74,"time_elapsed":13896129,"internal_node_id":"0.0-2.0-0.34"},{"rt":1257,"stimulus":"audio/Da_demo_Mary_doesnt_like_ice_cream.mp3","response":0,"test_part":"test","phrase":"Da_demo_Mary_doesnt_like_ice_cream","trial_type":"audio-button-response","trial_index":76,"time_elapsed":13898274,"internal_node_id":"0.0-2.0-0.35"},{"rt":1445,"stimulus":"audio/Eb_natural_We_didnt_get_ONE_Christmas_card.mp3","response":1,"test_part":"test","phrase":"Eb_natural_We_didnt_get_ONE_Christmas_card","trial_type":"audio-button-response","trial_index":78,"time_elapsed":13900347,"internal_node_id":"0.0-2.0-0.36"},{"rt":987,"stimulus":"audio/4a_demo_Thomas_didnt_see_Patrick.mp3","response":0,"test_part":"test","phrase":"4a_demo_Thomas_didnt_see_Patrick","trial_type":"audio-button-response","trial_index":80,"time_elapsed":13902276,"internal_node_id":"0.0-2.0-0.37"},{"rt":1202,"stimulus":"audio/5b_natural_the_food_didnt_taste_GOOD.mp3","response":0,"test_part":"test","phrase":"5b_natural_the_food_didnt_taste_GOOD","trial_type":"audio-button-response","trial_index":82,"time_elapsed":13904164,"internal_node_id":"0.0-2.0-0.38"},{"rt":903,"stimulus":"audio/4a_natural_Thomas_didnt_see_Patrick.mp3","response":0,"test_part":"test","phrase":"4a_natural_Thomas_didnt_see_Patrick","trial_type":"audio-button-response","trial_index":84,"time_elapsed":13905685,"internal_node_id":"0.0-2.0-0.39"}]