[{"rt":3688,"stimulus":"audio/1b_natural_the_inbox_wasnt_FULL.mp3","response":2,"test_part":"test","phrase":"1b_natural_the_inbox_wasnt_FULL","trial_type":"audio-button-response","trial_index":2,"time_elapsed":7079,"internal_node_id":"0.0-2.0-0.0"},{"rt":5211,"stimulus":"audio/1b_natural_the_inbox_wasnt_FULL.mp3","response":0,"test_part":"test","phrase":"1b_natural_the_inbox_wasnt_FULL","trial_type":"audio-button-response","trial_index":3,"time_elapsed":12290,"internal_node_id":"0.0-2.0-1.0-0.0"},{"rt":2792,"stimulus":"audio/Aa_natural_Ken_didnt_feed_the_cat.mp3","response":2,"test_part":"test","phrase":"Aa_natural_Ken_didnt_feed_the_cat","trial_type":"audio-button-response","trial_index":5,"time_elapsed":17148,"internal_node_id":"0.0-2.0-0.1"},{"rt":3309,"stimulus":"audio/Aa_natural_Ken_didnt_feed_the_cat.mp3","response":0,"test_part":"test","phrase":"Aa_natural_Ken_didnt_feed_the_cat","trial_type":"audio-button-response","trial_index":6,"time_elapsed":20467,"internal_node_id":"0.0-2.0-1.1-0.1"},{"rt":6568,"stimulus":"audio/Ea_demo_We_didnt_get_one_Christmas_card.mp3","response":2,"test_part":"test","phrase":"Ea_demo_We_didnt_get_one_Christmas_card","trial_type":"audio-button-response","trial_index":8,"time_elapsed":28793,"internal_node_id":"0.0-2.0-0.2"},{"rt":2229,"stimulus":"audio/Ea_demo_We_didnt_get_one_Christmas_card.mp3","response":0,"test_part":"test","phrase":"Ea_demo_We_didnt_get_one_Christmas_card","trial_type":"audio-button-response","trial_index":9,"time_elapsed":31033,"internal_node_id":"0.0-2.0-1.2-0.2"},{"rt":3771,"stimulus":"audio/Ab_demo_Ken_didnt_feed_the_CAT.mp3","response":2,"test_part":"test","phrase":"Ab_demo_Ken_didnt_feed_the_CAT","trial_type":"audio-button-response","trial_index":11,"time_elapsed":36442,"internal_node_id":"0.0-2.0-0.3"},{"rt":2429,"stimulus":"audio/Ab_demo_Ken_didnt_feed_the_CAT.mp3","response":0,"test_part":"test","phrase":"Ab_demo_Ken_didnt_feed_the_CAT","trial_type":"audio-button-response","trial_index":12,"time_elapsed":38865,"internal_node_id":"0.0-2.0-1.3-0.3"},{"rt":4331,"stimulus":"audio/Eb_natural_We_didnt_get_ONE_Christmas_card.mp3","response":0,"test_part":"test","phrase":"Eb_natural_We_didnt_get_ONE_Christmas_card","trial_type":"audio-button-response","trial_index":14,"time_elapsed":44540,"internal_node_id":"0.0-2.0-0.4"},{"rt":3541,"stimulus":"audio/Da_demo_Mary_doesnt_like_ice_cream.mp3","response":2,"test_part":"test","phrase":"Da_demo_Mary_doesnt_like_ice_cream","trial_type":"audio-button-response","trial_index":16,"time_elapsed":49646,"internal_node_id":"0.0-2.0-0.5"},{"rt":2349,"stimulus":"audio/Da_demo_Mary_doesnt_like_ice_cream.mp3","response":0,"test_part":"test","phrase":"Da_demo_Mary_doesnt_like_ice_cream","trial_type":"audio-button-response","trial_index":17,"time_elapsed":51997,"internal_node_id":"0.0-2.0-1.5-0.5"},{"rt":3691,"stimulus":"audio/1a_natural_the_inbox_wasnt_full.mp3","response":0,"test_part":"test","phrase":"1a_natural_the_inbox_wasnt_full","trial_type":"audio-button-response","trial_index":19,"time_elapsed":56970,"internal_node_id":"0.0-2.0-0.6"},{"rt":3989,"stimulus":"audio/Db_natural_Mary_doesnt_LIKE_ice_cream.mp3","response":0,"test_part":"test","phrase":"Db_natural_Mary_doesnt_LIKE_ice_cream","trial_type":"audio-button-response","trial_index":21,"time_elapsed":63214,"internal_node_id":"0.0-2.0-0.7"},{"rt":5051,"stimulus":"audio/4b_natural_Thomas_didnt_see_PATRICK.mp3","response":0,"test_part":"test","phrase":"4b_natural_Thomas_didnt_see_PATRICK","trial_type":"audio-button-response","trial_index":23,"time_elapsed":69758,"internal_node_id":"0.0-2.0-0.8"},{"rt":6171,"stimulus":"audio/Cb_demo_Nick_doesnt_listen_to_ANYONE.mp3","response":0,"test_part":"test","phrase":"Cb_demo_Nick_doesnt_listen_to_ANYONE","trial_type":"audio-button-response","trial_index":25,"time_elapsed":77538,"internal_node_id":"0.0-2.0-0.9"},{"rt":7512,"stimulus":"audio/4a_demo_Thomas_didnt_see_Patrick.mp3","response":0,"test_part":"test","phrase":"4a_demo_Thomas_didnt_see_Patrick","trial_type":"audio-button-response","trial_index":27,"time_elapsed":86777,"internal_node_id":"0.0-2.0-0.10"},{"rt":1979,"stimulus":"audio/2a_natural_Peter_wont_eat_anything.mp3","response":2,"test_part":"test","phrase":"2a_natural_Peter_wont_eat_anything","trial_type":"audio-button-response","trial_index":29,"time_elapsed":90333,"internal_node_id":"0.0-2.0-0.11"},{"rt":4101,"stimulus":"audio/2a_natural_Peter_wont_eat_anything.mp3","response":0,"test_part":"test","phrase":"2a_natural_Peter_wont_eat_anything","trial_type":"audio-button-response","trial_index":30,"time_elapsed":94437,"internal_node_id":"0.0-2.0-1.11-0.11"},{"rt":3731,"stimulus":"audio/Ab_natural_Ken_didnt_feed_the_CAT.mp3","response":0,"test_part":"test","phrase":"Ab_natural_Ken_didnt_feed_the_CAT","trial_type":"audio-button-response","trial_index":32,"time_elapsed":99768,"internal_node_id":"0.0-2.0-0.12"},{"rt":4459,"stimulus":"audio/3a_natural_Susan_didnt_get_one_credit.mp3","response":0,"test_part":"test","phrase":"3a_natural_Susan_didnt_get_one_credit","trial_type":"audio-button-response","trial_index":34,"time_elapsed":105255,"internal_node_id":"0.0-2.0-0.13"},{"rt":3939,"stimulus":"audio/5b_demo_the_food_didnt_taste_GOOD.mp3","response":0,"test_part":"test","phrase":"5b_demo_the_food_didnt_taste_GOOD","trial_type":"audio-button-response","trial_index":36,"time_elapsed":110827,"internal_node_id":"0.0-2.0-0.14"},{"rt":1632,"stimulus":"audio/Aa_demo_Ken_didnt_feed_the_cat.mp3","response":0,"test_part":"test","phrase":"Aa_demo_Ken_didnt_feed_the_cat","trial_type":"audio-button-response","trial_index":38,"time_elapsed":114049,"internal_node_id":"0.0-2.0-0.15"},{"rt":2461,"stimulus":"audio/Db_demo_Mary_doesnt_LIKE_ice_cream.mp3","response":0,"test_part":"test","phrase":"Db_demo_Mary_doesnt_LIKE_ice_cream","trial_type":"audio-button-response","trial_index":40,"time_elapsed":117923,"internal_node_id":"0.0-2.0-0.16"},{"rt":4232,"stimulus":"audio/1a_demo_the_inbox_wasnt_full.mp3","response":0,"test_part":"test","phrase":"1a_demo_the_inbox_wasnt_full","trial_type":"audio-button-response","trial_index":42,"time_elapsed":123931,"internal_node_id":"0.0-2.0-0.17"},{"rt":2859,"stimulus":"audio/2b_natural_Peter_wont_eat_ANYTHING.mp3","response":0,"test_part":"test","phrase":"2b_natural_Peter_wont_eat_ANYTHING","trial_type":"audio-button-response","trial_index":44,"time_elapsed":127497,"internal_node_id":"0.0-2.0-0.18"},{"rt":3448,"stimulus":"audio/Da_natural_Mary_doesnt_like_ice_cream.mp3","response":0,"test_part":"test","phrase":"Da_natural_Mary_doesnt_like_ice_cream","trial_type":"audio-button-response","trial_index":46,"time_elapsed":131617,"internal_node_id":"0.0-2.0-0.19"},{"rt":3040,"stimulus":"audio/Eb_demo_We_didnt_get_ONE_Christmas_card.mp3","response":1,"test_part":"test","phrase":"Eb_demo_We_didnt_get_ONE_Christmas_card","trial_type":"audio-button-response","trial_index":48,"time_elapsed":135642,"internal_node_id":"0.0-2.0-0.20"},{"rt":3192,"stimulus":"audio/5a_demo_the_food_didnt_taste_good.mp3","response":0,"test_part":"test","phrase":"5a_demo_the_food_didnt_taste_good","trial_type":"audio-button-response","trial_index":50,"time_elapsed":140122,"internal_node_id":"0.0-2.0-0.21"},{"rt":4859,"stimulus":"audio/3b_demo_Susan_didnt_get_ONE_credit.mp3","response":0,"test_part":"test","phrase":"3b_demo_Susan_didnt_get_ONE_credit","trial_type":"audio-button-response","trial_index":52,"time_elapsed":145990,"internal_node_id":"0.0-2.0-0.22"},{"rt":5109,"stimulus":"audio/Cb_natural_Nick_doesnt_listen_to_ANYONE.mp3","response":0,"test_part":"test","phrase":"Cb_natural_Nick_doesnt_listen_to_ANYONE","trial_type":"audio-button-response","trial_index":54,"time_elapsed":152098,"internal_node_id":"0.0-2.0-0.23"},{"rt":4400,"stimulus":"audio/4a_natural_Thomas_didnt_see_Patrick.mp3","response":0,"test_part":"test","phrase":"4a_natural_Thomas_didnt_see_Patrick","trial_type":"audio-button-response","trial_index":56,"time_elapsed":157901,"internal_node_id":"0.0-2.0-0.24"},{"rt":3101,"stimulus":"audio/3a_demo_Susan_didnt_get_one_credit.mp3","response":1,"test_part":"test","phrase":"3a_demo_Susan_didnt_get_one_credit","trial_type":"audio-button-response","trial_index":58,"time_elapsed":162061,"internal_node_id":"0.0-2.0-0.25"},{"rt":2331,"stimulus":"audio/5a_natural_the_food_didnt_taste_good.mp3","response":0,"test_part":"test","phrase":"5a_natural_the_food_didnt_taste_good","trial_type":"audio-button-response","trial_index":60,"time_elapsed":166018,"internal_node_id":"0.0-2.0-0.26"},{"rt":2309,"stimulus":"audio/Ca_demo_Nick_doesnt_listen_to_anyone.mp3","response":1,"test_part":"test","phrase":"Ca_demo_Nick_doesnt_listen_to_anyone","trial_type":"audio-button-response","trial_index":62,"time_elapsed":170489,"internal_node_id":"0.0-2.0-0.27"},{"rt":6760,"stimulus":"audio/1b_demo_the_inbox_wasnt_FULL.mp3","response":2,"test_part":"test","phrase":"1b_demo_the_inbox_wasnt_FULL","trial_type":"audio-button-response","trial_index":64,"time_elapsed":178031,"internal_node_id":"0.0-2.0-0.28"},{"rt":2200,"stimulus":"audio/1b_demo_the_inbox_wasnt_FULL.mp3","response":0,"test_part":"test","phrase":"1b_demo_the_inbox_wasnt_FULL","trial_type":"audio-button-response","trial_index":65,"time_elapsed":180230,"internal_node_id":"0.0-2.0-1.28-0.28"},{"rt":2080,"stimulus":"audio/Ea_natural_We_didnt_get_one_Christmas_card.mp3","response":1,"test_part":"test","phrase":"Ea_natural_We_didnt_get_one_Christmas_card","trial_type":"audio-button-response","trial_index":67,"time_elapsed":183708,"internal_node_id":"0.0-2.0-0.29"},{"rt":2531,"stimulus":"audio/9b_demo_Arthur_wasnt_TIPSY.mp3","response":2,"test_part":"test","phrase":"9b_demo_Arthur_wasnt_TIPSY","trial_type":"audio-button-response","trial_index":69,"time_elapsed":187986,"internal_node_id":"0.0-2.0-0.30"},{"rt":1611,"stimulus":"audio/9b_demo_Arthur_wasnt_TIPSY.mp3","response":1,"test_part":"test","phrase":"9b_demo_Arthur_wasnt_TIPSY","trial_type":"audio-button-response","trial_index":70,"time_elapsed":189589,"internal_node_id":"0.0-2.0-1.30-0.30"},{"rt":3749,"stimulus":"audio/5b_natural_the_food_didnt_taste_GOOD.mp3","response":0,"test_part":"test","phrase":"5b_natural_the_food_didnt_taste_GOOD","trial_type":"audio-button-response","trial_index":72,"time_elapsed":195165,"internal_node_id":"0.0-2.0-0.31"},{"rt":2208,"stimulus":"audio/2a_demo_Peter_wont_eat_anything.mp3","response":0,"test_part":"test","phrase":"2a_demo_Peter_wont_eat_anything","trial_type":"audio-button-response","trial_index":74,"time_elapsed":198568,"internal_node_id":"0.0-2.0-0.32"},{"rt":2499,"stimulus":"audio/Ca_natural_Nick_doesnt_listen_to_anyone.mp3","response":0,"test_part":"test","phrase":"Ca_natural_Nick_doesnt_listen_to_anyone","trial_type":"audio-button-response","trial_index":76,"time_elapsed":203009,"internal_node_id":"0.0-2.0-0.33"},{"rt":2101,"stimulus":"audio/9a_natural_Arthur_wasnt_tipsy.mp3","response":1,"test_part":"test","phrase":"9a_natural_Arthur_wasnt_tipsy","trial_type":"audio-button-response","trial_index":78,"time_elapsed":205678,"internal_node_id":"0.0-2.0-0.34"},{"rt":2392,"stimulus":"audio/4b_demo_Thomas_didnt_see_PATRICK.mp3","response":1,"test_part":"test","phrase":"4b_demo_Thomas_didnt_see_PATRICK","trial_type":"audio-button-response","trial_index":80,"time_elapsed":210226,"internal_node_id":"0.0-2.0-0.35"},{"rt":2589,"stimulus":"audio/9b_natural_Arthur_wasnt_TIPSY.mp3","response":1,"test_part":"test","phrase":"9b_natural_Arthur_wasnt_TIPSY","trial_type":"audio-button-response","trial_index":82,"time_elapsed":213646,"internal_node_id":"0.0-2.0-0.36"},{"rt":2568,"stimulus":"audio/3b_natural_Susan_didnt_get_ONE_credit.mp3","response":0,"test_part":"test","phrase":"3b_natural_Susan_didnt_get_ONE_credit","trial_type":"audio-button-response","trial_index":84,"time_elapsed":218507,"internal_node_id":"0.0-2.0-0.37"},{"rt":3931,"stimulus":"audio/2b_demo_Peter_wont_eat_ANYTHING.mp3","response":0,"test_part":"test","phrase":"2b_demo_Peter_wont_eat_ANYTHING","trial_type":"audio-button-response","trial_index":86,"time_elapsed":223296,"internal_node_id":"0.0-2.0-0.38"},{"rt":2579,"stimulus":"audio/9a_demo_Arthur_wasnt_tipsy.mp3","response":1,"test_part":"test","phrase":"9a_demo_Arthur_wasnt_tipsy","trial_type":"audio-button-response","trial_index":88,"time_elapsed":226962,"internal_node_id":"0.0-2.0-0.39"}]