[{"rt":4851,"stimulus":"audio/Db_natural_Mary_doesnt_LIKE_ice_cream.mp3","response":2,"test_part":"test","phrase":"Db_natural_Mary_doesnt_LIKE_ice_cream","trial_type":"audio-button-response","trial_index":2,"time_elapsed":6443,"internal_node_id":"0.0-2.0-0.0"},{"rt":3720,"stimulus":"audio/Db_natural_Mary_doesnt_LIKE_ice_cream.mp3","response":0,"test_part":"test","phrase":"Db_natural_Mary_doesnt_LIKE_ice_cream","trial_type":"audio-button-response","trial_index":3,"time_elapsed":10167,"internal_node_id":"0.0-2.0-1.0-0.0"},{"rt":9488,"stimulus":"audio/5b_demo_the_food_didnt_taste_GOOD.mp3","response":2,"test_part":"test","phrase":"5b_demo_the_food_didnt_taste_GOOD","trial_type":"audio-button-response","trial_index":5,"time_elapsed":21275,"internal_node_id":"0.0-2.0-0.1"},{"rt":3541,"stimulus":"audio/5b_demo_the_food_didnt_taste_GOOD.mp3","response":0,"test_part":"test","phrase":"5b_demo_the_food_didnt_taste_GOOD","trial_type":"audio-button-response","trial_index":6,"time_elapsed":24819,"internal_node_id":"0.0-2.0-1.1-0.1"},{"rt":2899,"stimulus":"audio/2a_natural_Peter_wont_eat_anything.mp3","response":0,"test_part":"test","phrase":"2a_natural_Peter_wont_eat_anything","trial_type":"audio-button-response","trial_index":8,"time_elapsed":29202,"internal_node_id":"0.0-2.0-0.2"},{"rt":3789,"stimulus":"audio/Eb_natural_We_didnt_get_ONE_Christmas_card.mp3","response":0,"test_part":"test","phrase":"Eb_natural_We_didnt_get_ONE_Christmas_card","trial_type":"audio-button-response","trial_index":10,"time_elapsed":34954,"internal_node_id":"0.0-2.0-0.3"},{"rt":9960,"stimulus":"audio/Ca_natural_Nick_doesnt_listen_to_anyone.mp3","response":1,"test_part":"test","phrase":"Ca_natural_Nick_doesnt_listen_to_anyone","trial_type":"audio-button-response","trial_index":12,"time_elapsed":46043,"internal_node_id":"0.0-2.0-0.4"},{"rt":3360,"stimulus":"audio/Da_demo_Mary_doesnt_like_ice_cream.mp3","response":0,"test_part":"test","phrase":"Da_demo_Mary_doesnt_like_ice_cream","trial_type":"audio-button-response","trial_index":14,"time_elapsed":50673,"internal_node_id":"0.0-2.0-0.5"},{"rt":5240,"stimulus":"audio/Ea_natural_We_didnt_get_one_Christmas_card.mp3","response":1,"test_part":"test","phrase":"Ea_natural_We_didnt_get_one_Christmas_card","trial_type":"audio-button-response","trial_index":16,"time_elapsed":56809,"internal_node_id":"0.0-2.0-0.6"},{"rt":2869,"stimulus":"audio/Ab_natural_Ken_didnt_feed_the_CAT.mp3","response":0,"test_part":"test","phrase":"Ab_natural_Ken_didnt_feed_the_CAT","trial_type":"audio-button-response","trial_index":18,"time_elapsed":60681,"internal_node_id":"0.0-2.0-0.7"},{"rt":4139,"stimulus":"audio/3a_demo_Susan_didnt_get_one_credit.mp3","response":0,"test_part":"test","phrase":"3a_demo_Susan_didnt_get_one_credit","trial_type":"audio-button-response","trial_index":20,"time_elapsed":65842,"internal_node_id":"0.0-2.0-0.8"},{"rt":2501,"stimulus":"audio/Ab_demo_Ken_didnt_feed_the_CAT.mp3","response":0,"test_part":"test","phrase":"Ab_demo_Ken_didnt_feed_the_CAT","trial_type":"audio-button-response","trial_index":22,"time_elapsed":69094,"internal_node_id":"0.0-2.0-0.9"},{"rt":5331,"stimulus":"audio/9b_demo_Arthur_wasnt_TIPSY.mp3","response":0,"test_part":"test","phrase":"9b_demo_Arthur_wasnt_TIPSY","trial_type":"audio-button-response","trial_index":24,"time_elapsed":75103,"internal_node_id":"0.0-2.0-0.10"},{"rt":2632,"stimulus":"audio/4a_demo_Thomas_didnt_see_Patrick.mp3","response":0,"test_part":"test","phrase":"4a_demo_Thomas_didnt_see_Patrick","trial_type":"audio-button-response","trial_index":26,"time_elapsed":78551,"internal_node_id":"0.0-2.0-0.11"},{"rt":2640,"stimulus":"audio/5a_demo_the_food_didnt_taste_good.mp3","response":0,"test_part":"test","phrase":"5a_demo_the_food_didnt_taste_good","trial_type":"audio-button-response","trial_index":28,"time_elapsed":81792,"internal_node_id":"0.0-2.0-0.12"},{"rt":2301,"stimulus":"audio/Da_natural_Mary_doesnt_like_ice_cream.mp3","response":0,"test_part":"test","phrase":"Da_natural_Mary_doesnt_like_ice_cream","trial_type":"audio-button-response","trial_index":30,"time_elapsed":84822,"internal_node_id":"0.0-2.0-0.13"},{"rt":2208,"stimulus":"audio/5b_natural_the_food_didnt_taste_GOOD.mp3","response":0,"test_part":"test","phrase":"5b_natural_the_food_didnt_taste_GOOD","trial_type":"audio-button-response","trial_index":32,"time_elapsed":87794,"internal_node_id":"0.0-2.0-0.14"},{"rt":1981,"stimulus":"audio/4a_natural_Thomas_didnt_see_Patrick.mp3","response":0,"test_part":"test","phrase":"4a_natural_Thomas_didnt_see_Patrick","trial_type":"audio-button-response","trial_index":34,"time_elapsed":90418,"internal_node_id":"0.0-2.0-0.15"},{"rt":2040,"stimulus":"audio/9b_natural_Arthur_wasnt_TIPSY.mp3","response":0,"test_part":"test","phrase":"9b_natural_Arthur_wasnt_TIPSY","trial_type":"audio-button-response","trial_index":36,"time_elapsed":93079,"internal_node_id":"0.0-2.0-0.16"},{"rt":7731,"stimulus":"audio/1b_demo_the_inbox_wasnt_FULL.mp3","response":1,"test_part":"test","phrase":"1b_demo_the_inbox_wasnt_FULL","trial_type":"audio-button-response","trial_index":38,"time_elapsed":101418,"internal_node_id":"0.0-2.0-0.17"},{"rt":2109,"stimulus":"audio/Aa_natural_Ken_didnt_feed_the_cat.mp3","response":0,"test_part":"test","phrase":"Aa_natural_Ken_didnt_feed_the_cat","trial_type":"audio-button-response","trial_index":40,"time_elapsed":104324,"internal_node_id":"0.0-2.0-0.18"},{"rt":3512,"stimulus":"audio/4b_demo_Thomas_didnt_see_PATRICK.mp3","response":0,"test_part":"test","phrase":"4b_demo_Thomas_didnt_see_PATRICK","trial_type":"audio-button-response","trial_index":42,"time_elapsed":108432,"internal_node_id":"0.0-2.0-0.19"},{"rt":3168,"stimulus":"audio/9a_natural_Arthur_wasnt_tipsy.mp3","response":0,"test_part":"test","phrase":"9a_natural_Arthur_wasnt_tipsy","trial_type":"audio-button-response","trial_index":44,"time_elapsed":112237,"internal_node_id":"0.0-2.0-0.20"},{"rt":2059,"stimulus":"audio/Ca_demo_Nick_doesnt_listen_to_anyone.mp3","response":1,"test_part":"test","phrase":"Ca_demo_Nick_doesnt_listen_to_anyone","trial_type":"audio-button-response","trial_index":46,"time_elapsed":114882,"internal_node_id":"0.0-2.0-0.21"},{"rt":2440,"stimulus":"audio/3b_natural_Susan_didnt_get_ONE_credit.mp3","response":0,"test_part":"test","phrase":"3b_natural_Susan_didnt_get_ONE_credit","trial_type":"audio-button-response","trial_index":48,"time_elapsed":117919,"internal_node_id":"0.0-2.0-0.22"},{"rt":1869,"stimulus":"audio/9a_demo_Arthur_wasnt_tipsy.mp3","response":0,"test_part":"test","phrase":"9a_demo_Arthur_wasnt_tipsy","trial_type":"audio-button-response","trial_index":50,"time_elapsed":120502,"internal_node_id":"0.0-2.0-0.23"},{"rt":2581,"stimulus":"audio/3b_demo_Susan_didnt_get_ONE_credit.mp3","response":0,"test_part":"test","phrase":"3b_demo_Susan_didnt_get_ONE_credit","trial_type":"audio-button-response","trial_index":52,"time_elapsed":123779,"internal_node_id":"0.0-2.0-0.24"},{"rt":6059,"stimulus":"audio/1a_natural_the_inbox_wasnt_full.mp3","response":0,"test_part":"test","phrase":"1a_natural_the_inbox_wasnt_full","trial_type":"audio-button-response","trial_index":54,"time_elapsed":130446,"internal_node_id":"0.0-2.0-0.25"},{"rt":2432,"stimulus":"audio/2b_demo_Peter_wont_eat_ANYTHING.mp3","response":0,"test_part":"test","phrase":"2b_demo_Peter_wont_eat_ANYTHING","trial_type":"audio-button-response","trial_index":56,"time_elapsed":133547,"internal_node_id":"0.0-2.0-0.26"},{"rt":2069,"stimulus":"audio/Cb_demo_Nick_doesnt_listen_to_ANYONE.mp3","response":1,"test_part":"test","phrase":"Cb_demo_Nick_doesnt_listen_to_ANYONE","trial_type":"audio-button-response","trial_index":58,"time_elapsed":136171,"internal_node_id":"0.0-2.0-0.27"},{"rt":1760,"stimulus":"audio/Db_demo_Mary_doesnt_LIKE_ice_cream.mp3","response":0,"test_part":"test","phrase":"Db_demo_Mary_doesnt_LIKE_ice_cream","trial_type":"audio-button-response","trial_index":60,"time_elapsed":138436,"internal_node_id":"0.0-2.0-0.28"},{"rt":2088,"stimulus":"audio/Cb_natural_Nick_doesnt_listen_to_ANYONE.mp3","response":1,"test_part":"test","phrase":"Cb_natural_Nick_doesnt_listen_to_ANYONE","trial_type":"audio-button-response","trial_index":62,"time_elapsed":141280,"internal_node_id":"0.0-2.0-0.29"},{"rt":3091,"stimulus":"audio/1b_natural_the_inbox_wasnt_FULL.mp3","response":1,"test_part":"test","phrase":"1b_natural_the_inbox_wasnt_FULL","trial_type":"audio-button-response","trial_index":64,"time_elapsed":144938,"internal_node_id":"0.0-2.0-0.30"},{"rt":2989,"stimulus":"audio/3a_natural_Susan_didnt_get_one_credit.mp3","response":0,"test_part":"test","phrase":"3a_natural_Susan_didnt_get_one_credit","trial_type":"audio-button-response","trial_index":66,"time_elapsed":148438,"internal_node_id":"0.0-2.0-0.31"},{"rt":2400,"stimulus":"audio/5a_natural_the_food_didnt_taste_good.mp3","response":0,"test_part":"test","phrase":"5a_natural_the_food_didnt_taste_good","trial_type":"audio-button-response","trial_index":68,"time_elapsed":151475,"internal_node_id":"0.0-2.0-0.32"},{"rt":6640,"stimulus":"audio/Ea_demo_We_didnt_get_one_Christmas_card.mp3","response":0,"test_part":"test","phrase":"Ea_demo_We_didnt_get_one_Christmas_card","trial_type":"audio-button-response","trial_index":70,"time_elapsed":158834,"internal_node_id":"0.0-2.0-0.33"},{"rt":2011,"stimulus":"audio/2a_demo_Peter_wont_eat_anything.mp3","response":0,"test_part":"test","phrase":"2a_demo_Peter_wont_eat_anything","trial_type":"audio-button-response","trial_index":72,"time_elapsed":161664,"internal_node_id":"0.0-2.0-0.34"},{"rt":4429,"stimulus":"audio/Eb_demo_We_didnt_get_ONE_Christmas_card.mp3","response":0,"test_part":"test","phrase":"Eb_demo_We_didnt_get_ONE_Christmas_card","trial_type":"audio-button-response","trial_index":74,"time_elapsed":166803,"internal_node_id":"0.0-2.0-0.35"},{"rt":8349,"stimulus":"audio/1a_demo_the_inbox_wasnt_full.mp3","response":0,"test_part":"test","phrase":"1a_demo_the_inbox_wasnt_full","trial_type":"audio-button-response","trial_index":76,"time_elapsed":175929,"internal_node_id":"0.0-2.0-0.36"},{"rt":1651,"stimulus":"audio/2b_natural_Peter_wont_eat_ANYTHING.mp3","response":0,"test_part":"test","phrase":"2b_natural_Peter_wont_eat_ANYTHING","trial_type":"audio-button-response","trial_index":78,"time_elapsed":178391,"internal_node_id":"0.0-2.0-0.37"},{"rt":2331,"stimulus":"audio/4b_natural_Thomas_didnt_see_PATRICK.mp3","response":0,"test_part":"test","phrase":"4b_natural_Thomas_didnt_see_PATRICK","trial_type":"audio-button-response","trial_index":80,"time_elapsed":181464,"internal_node_id":"0.0-2.0-0.38"},{"rt":2272,"stimulus":"audio/Aa_demo_Ken_didnt_feed_the_cat.mp3","response":0,"test_part":"test","phrase":"Aa_demo_Ken_didnt_feed_the_cat","trial_type":"audio-button-response","trial_index":82,"time_elapsed":184984,"internal_node_id":"0.0-2.0-0.39"}]