[{"rt":15200,"stimulus":"audio/1a_natural_the_inbox_wasnt_full.mp3","response":2,"test_part":"test","phrase":"1a_natural_the_inbox_wasnt_full","trial_type":"audio-button-response","trial_index":2,"time_elapsed":28091,"internal_node_id":"0.0-2.0-0.0"},{"rt":5149,"stimulus":"audio/1a_natural_the_inbox_wasnt_full.mp3","response":0,"test_part":"test","phrase":"1a_natural_the_inbox_wasnt_full","trial_type":"audio-button-response","trial_index":3,"time_elapsed":33245,"internal_node_id":"0.0-2.0-1.0-0.0"},{"rt":24659,"stimulus":"audio/3b_natural_Susan_didnt_get_ONE_credit.mp3","response":1,"test_part":"test","phrase":"3b_natural_Susan_didnt_get_ONE_credit","trial_type":"audio-button-response","trial_index":5,"time_elapsed":61723,"internal_node_id":"0.0-2.0-0.1"},{"rt":5520,"stimulus":"audio/Ca_demo_Nick_doesnt_listen_to_anyone.mp3","response":0,"test_part":"test","phrase":"Ca_demo_Nick_doesnt_listen_to_anyone","trial_type":"audio-button-response","trial_index":7,"time_elapsed":72235,"internal_node_id":"0.0-2.0-0.2"},{"rt":7251,"stimulus":"audio/Db_demo_Mary_doesnt_LIKE_ice_cream.mp3","response":1,"test_part":"test","phrase":"Db_demo_Mary_doesnt_LIKE_ice_cream","trial_type":"audio-button-response","trial_index":9,"time_elapsed":81217,"internal_node_id":"0.0-2.0-0.3"},{"rt":10819,"stimulus":"audio/2a_natural_Peter_wont_eat_anything.mp3","response":0,"test_part":"test","phrase":"2a_natural_Peter_wont_eat_anything","trial_type":"audio-button-response","trial_index":11,"time_elapsed":93725,"internal_node_id":"0.0-2.0-0.4"},{"rt":3848,"stimulus":"audio/9b_natural_Arthur_wasnt_TIPSY.mp3","response":1,"test_part":"test","phrase":"9b_natural_Arthur_wasnt_TIPSY","trial_type":"audio-button-response","trial_index":13,"time_elapsed":99115,"internal_node_id":"0.0-2.0-0.5"},{"rt":7560,"stimulus":"audio/Cb_natural_Nick_doesnt_listen_to_ANYONE.mp3","response":1,"test_part":"test","phrase":"Cb_natural_Nick_doesnt_listen_to_ANYONE","trial_type":"audio-button-response","trial_index":15,"time_elapsed":108595,"internal_node_id":"0.0-2.0-0.6"},{"rt":4949,"stimulus":"audio/4b_natural_Thomas_didnt_see_PATRICK.mp3","response":1,"test_part":"test","phrase":"4b_natural_Thomas_didnt_see_PATRICK","trial_type":"audio-button-response","trial_index":17,"time_elapsed":115345,"internal_node_id":"0.0-2.0-0.7"},{"rt":4709,"stimulus":"audio/Ea_natural_We_didnt_get_one_Christmas_card.mp3","response":1,"test_part":"test","phrase":"Ea_natural_We_didnt_get_one_Christmas_card","trial_type":"audio-button-response","trial_index":19,"time_elapsed":121528,"internal_node_id":"0.0-2.0-0.8"},{"rt":9760,"stimulus":"audio/4b_demo_Thomas_didnt_see_PATRICK.mp3","response":1,"test_part":"test","phrase":"4b_demo_Thomas_didnt_see_PATRICK","trial_type":"audio-button-response","trial_index":21,"time_elapsed":138803,"internal_node_id":"0.0-2.0-0.9"},{"rt":7861,"stimulus":"audio/5b_natural_the_food_didnt_taste_GOOD.mp3","response":1,"test_part":"test","phrase":"5b_natural_the_food_didnt_taste_GOOD","trial_type":"audio-button-response","trial_index":23,"time_elapsed":149537,"internal_node_id":"0.0-2.0-0.10"},{"rt":3739,"stimulus":"audio/Ea_demo_We_didnt_get_one_Christmas_card.mp3","response":0,"test_part":"test","phrase":"Ea_demo_We_didnt_get_one_Christmas_card","trial_type":"audio-button-response","trial_index":25,"time_elapsed":154933,"internal_node_id":"0.0-2.0-0.11"},{"rt":3421,"stimulus":"audio/3a_natural_Susan_didnt_get_one_credit.mp3","response":0,"test_part":"test","phrase":"3a_natural_Susan_didnt_get_one_credit","trial_type":"audio-button-response","trial_index":27,"time_elapsed":160188,"internal_node_id":"0.0-2.0-0.12"},{"rt":18989,"stimulus":"audio/Cb_demo_Nick_doesnt_listen_to_ANYONE.mp3","response":2,"test_part":"test","phrase":"Cb_demo_Nick_doesnt_listen_to_ANYONE","trial_type":"audio-button-response","trial_index":29,"time_elapsed":180250,"internal_node_id":"0.0-2.0-0.13"},{"rt":3101,"stimulus":"audio/Cb_demo_Nick_doesnt_listen_to_ANYONE.mp3","response":1,"test_part":"test","phrase":"Cb_demo_Nick_doesnt_listen_to_ANYONE","trial_type":"audio-button-response","trial_index":30,"time_elapsed":183352,"internal_node_id":"0.0-2.0-1.13-0.13"},{"rt":3629,"stimulus":"audio/2b_demo_Peter_wont_eat_ANYTHING.mp3","response":1,"test_part":"test","phrase":"2b_demo_Peter_wont_eat_ANYTHING","trial_type":"audio-button-response","trial_index":32,"time_elapsed":188573,"internal_node_id":"0.0-2.0-0.14"},{"rt":13859,"stimulus":"audio/1b_natural_the_inbox_wasnt_FULL.mp3","response":1,"test_part":"test","phrase":"1b_natural_the_inbox_wasnt_FULL","trial_type":"audio-button-response","trial_index":34,"time_elapsed":203756,"internal_node_id":"0.0-2.0-0.15"},{"rt":11120,"stimulus":"audio/4a_demo_Thomas_didnt_see_Patrick.mp3","response":2,"test_part":"test","phrase":"4a_demo_Thomas_didnt_see_Patrick","trial_type":"audio-button-response","trial_index":36,"time_elapsed":216334,"internal_node_id":"0.0-2.0-0.16"},{"rt":4579,"stimulus":"audio/4a_demo_Thomas_didnt_see_Patrick.mp3","response":1,"test_part":"test","phrase":"4a_demo_Thomas_didnt_see_Patrick","trial_type":"audio-button-response","trial_index":37,"time_elapsed":220918,"internal_node_id":"0.0-2.0-1.16-0.16"},{"rt":14448,"stimulus":"audio/2b_natural_Peter_wont_eat_ANYTHING.mp3","response":2,"test_part":"test","phrase":"2b_natural_Peter_wont_eat_ANYTHING","trial_type":"audio-button-response","trial_index":39,"time_elapsed":236761,"internal_node_id":"0.0-2.0-0.17"},{"rt":6792,"stimulus":"audio/2b_natural_Peter_wont_eat_ANYTHING.mp3","response":1,"test_part":"test","phrase":"2b_natural_Peter_wont_eat_ANYTHING","trial_type":"audio-button-response","trial_index":40,"time_elapsed":243553,"internal_node_id":"0.0-2.0-1.17-0.17"},{"rt":6000,"stimulus":"audio/Ab_natural_Ken_didnt_feed_the_CAT.mp3","response":1,"test_part":"test","phrase":"Ab_natural_Ken_didnt_feed_the_CAT","trial_type":"audio-button-response","trial_index":42,"time_elapsed":250863,"internal_node_id":"0.0-2.0-0.18"},{"rt":3360,"stimulus":"audio/4a_natural_Thomas_didnt_see_Patrick.mp3","response":0,"test_part":"test","phrase":"4a_natural_Thomas_didnt_see_Patrick","trial_type":"audio-button-response","trial_index":44,"time_elapsed":256307,"internal_node_id":"0.0-2.0-0.19"},{"rt":3680,"stimulus":"audio/5b_demo_the_food_didnt_taste_GOOD.mp3","response":1,"test_part":"test","phrase":"5b_demo_the_food_didnt_taste_GOOD","trial_type":"audio-button-response","trial_index":46,"time_elapsed":261473,"internal_node_id":"0.0-2.0-0.20"},{"rt":6960,"stimulus":"audio/9a_natural_Arthur_wasnt_tipsy.mp3","response":2,"test_part":"test","phrase":"9a_natural_Arthur_wasnt_tipsy","trial_type":"audio-button-response","trial_index":48,"time_elapsed":271438,"internal_node_id":"0.0-2.0-0.21"},{"rt":3131,"stimulus":"audio/9a_natural_Arthur_wasnt_tipsy.mp3","response":0,"test_part":"test","phrase":"9a_natural_Arthur_wasnt_tipsy","trial_type":"audio-button-response","trial_index":49,"time_elapsed":274567,"internal_node_id":"0.0-2.0-1.21-0.21"},{"rt":5640,"stimulus":"audio/1a_demo_the_inbox_wasnt_full.mp3","response":0,"test_part":"test","phrase":"1a_demo_the_inbox_wasnt_full","trial_type":"audio-button-response","trial_index":51,"time_elapsed":283137,"internal_node_id":"0.0-2.0-0.22"},{"rt":3269,"stimulus":"audio/5a_demo_the_food_didnt_taste_good.mp3","response":0,"test_part":"test","phrase":"5a_demo_the_food_didnt_taste_good","trial_type":"audio-button-response","trial_index":53,"time_elapsed":288303,"internal_node_id":"0.0-2.0-0.23"},{"rt":2931,"stimulus":"audio/9b_demo_Arthur_wasnt_TIPSY.mp3","response":1,"test_part":"test","phrase":"9b_demo_Arthur_wasnt_TIPSY","trial_type":"audio-button-response","trial_index":55,"time_elapsed":292445,"internal_node_id":"0.0-2.0-0.24"},{"rt":4120,"stimulus":"audio/Da_demo_Mary_doesnt_like_ice_cream.mp3","response":0,"test_part":"test","phrase":"Da_demo_Mary_doesnt_like_ice_cream","trial_type":"audio-button-response","trial_index":57,"time_elapsed":297783,"internal_node_id":"0.0-2.0-0.25"},{"rt":4040,"stimulus":"audio/Ca_natural_Nick_doesnt_listen_to_anyone.mp3","response":0,"test_part":"test","phrase":"Ca_natural_Nick_doesnt_listen_to_anyone","trial_type":"audio-button-response","trial_index":59,"time_elapsed":303333,"internal_node_id":"0.0-2.0-0.26"},{"rt":3531,"stimulus":"audio/3b_demo_Susan_didnt_get_ONE_credit.mp3","response":1,"test_part":"test","phrase":"3b_demo_Susan_didnt_get_ONE_credit","trial_type":"audio-button-response","trial_index":61,"time_elapsed":308286,"internal_node_id":"0.0-2.0-0.27"},{"rt":5371,"stimulus":"audio/Db_natural_Mary_doesnt_LIKE_ice_cream.mp3","response":2,"test_part":"test","phrase":"Db_natural_Mary_doesnt_LIKE_ice_cream","trial_type":"audio-button-response","trial_index":63,"time_elapsed":314811,"internal_node_id":"0.0-2.0-0.28"},{"rt":5501,"stimulus":"audio/Db_natural_Mary_doesnt_LIKE_ice_cream.mp3","response":1,"test_part":"test","phrase":"Db_natural_Mary_doesnt_LIKE_ice_cream","trial_type":"audio-button-response","trial_index":64,"time_elapsed":320310,"internal_node_id":"0.0-2.0-1.28-0.28"},{"rt":6651,"stimulus":"audio/5a_natural_the_food_didnt_taste_good.mp3","response":0,"test_part":"test","phrase":"5a_natural_the_food_didnt_taste_good","trial_type":"audio-button-response","trial_index":66,"time_elapsed":328904,"internal_node_id":"0.0-2.0-0.29"},{"rt":3669,"stimulus":"audio/Aa_demo_Ken_didnt_feed_the_cat.mp3","response":1,"test_part":"test","phrase":"Aa_demo_Ken_didnt_feed_the_cat","trial_type":"audio-button-response","trial_index":68,"time_elapsed":335902,"internal_node_id":"0.0-2.0-0.30"},{"rt":8219,"stimulus":"audio/9a_demo_Arthur_wasnt_tipsy.mp3","response":2,"test_part":"test","phrase":"9a_demo_Arthur_wasnt_tipsy","trial_type":"audio-button-response","trial_index":70,"time_elapsed":345761,"internal_node_id":"0.0-2.0-0.31"},{"rt":11269,"stimulus":"audio/9a_demo_Arthur_wasnt_tipsy.mp3","response":1,"test_part":"test","phrase":"9a_demo_Arthur_wasnt_tipsy","trial_type":"audio-button-response","trial_index":71,"time_elapsed":357043,"internal_node_id":"0.0-2.0-1.31-0.31"},{"rt":9971,"stimulus":"audio/Da_natural_Mary_doesnt_like_ice_cream.mp3","response":2,"test_part":"test","phrase":"Da_natural_Mary_doesnt_like_ice_cream","trial_type":"audio-button-response","trial_index":73,"time_elapsed":368647,"internal_node_id":"0.0-2.0-0.32"},{"rt":14941,"stimulus":"audio/Da_natural_Mary_doesnt_like_ice_cream.mp3","response":0,"test_part":"test","phrase":"Da_natural_Mary_doesnt_like_ice_cream","trial_type":"audio-button-response","trial_index":74,"time_elapsed":383593,"internal_node_id":"0.0-2.0-1.32-0.32"},{"rt":8189,"stimulus":"audio/Aa_natural_Ken_didnt_feed_the_cat.mp3","response":0,"test_part":"test","phrase":"Aa_natural_Ken_didnt_feed_the_cat","trial_type":"audio-button-response","trial_index":76,"time_elapsed":393375,"internal_node_id":"0.0-2.0-0.33"},{"rt":4781,"stimulus":"audio/1b_demo_the_inbox_wasnt_FULL.mp3","response":1,"test_part":"test","phrase":"1b_demo_the_inbox_wasnt_FULL","trial_type":"audio-button-response","trial_index":78,"time_elapsed":400704,"internal_node_id":"0.0-2.0-0.34"},{"rt":3840,"stimulus":"audio/Eb_demo_We_didnt_get_ONE_Christmas_card.mp3","response":1,"test_part":"test","phrase":"Eb_demo_We_didnt_get_ONE_Christmas_card","trial_type":"audio-button-response","trial_index":80,"time_elapsed":406855,"internal_node_id":"0.0-2.0-0.35"},{"rt":3211,"stimulus":"audio/3a_demo_Susan_didnt_get_one_credit.mp3","response":0,"test_part":"test","phrase":"3a_demo_Susan_didnt_get_one_credit","trial_type":"audio-button-response","trial_index":82,"time_elapsed":411498,"internal_node_id":"0.0-2.0-0.36"},{"rt":12331,"stimulus":"audio/2a_demo_Peter_wont_eat_anything.mp3","response":2,"test_part":"test","phrase":"2a_demo_Peter_wont_eat_anything","trial_type":"audio-button-response","trial_index":84,"time_elapsed":425144,"internal_node_id":"0.0-2.0-0.37"},{"rt":3259,"stimulus":"audio/2a_demo_Peter_wont_eat_anything.mp3","response":0,"test_part":"test","phrase":"2a_demo_Peter_wont_eat_anything","trial_type":"audio-button-response","trial_index":85,"time_elapsed":428400,"internal_node_id":"0.0-2.0-1.37-0.37"},{"rt":2611,"stimulus":"audio/Ab_demo_Ken_didnt_feed_the_CAT.mp3","response":1,"test_part":"test","phrase":"Ab_demo_Ken_didnt_feed_the_CAT","trial_type":"audio-button-response","trial_index":87,"time_elapsed":433458,"internal_node_id":"0.0-2.0-0.38"},{"rt":3400,"stimulus":"audio/Eb_natural_We_didnt_get_ONE_Christmas_card.mp3","response":1,"test_part":"test","phrase":"Eb_natural_We_didnt_get_ONE_Christmas_card","trial_type":"audio-button-response","trial_index":89,"time_elapsed":438632,"internal_node_id":"0.0-2.0-0.39"}]