[{"rt":3832,"stimulus":"audio/2a_natural_Peter_wont_eat_anything.mp3","response":2,"test_part":"test","phrase":"2a_natural_Peter_wont_eat_anything","trial_type":"audio-button-response","trial_index":2,"time_elapsed":8238,"internal_node_id":"0.0-2.0-0.0"},{"rt":8400,"stimulus":"audio/2a_natural_Peter_wont_eat_anything.mp3","response":0,"test_part":"test","phrase":"2a_natural_Peter_wont_eat_anything","trial_type":"audio-button-response","trial_index":3,"time_elapsed":16643,"internal_node_id":"0.0-2.0-1.0-0.0"},{"rt":6669,"stimulus":"audio/4b_demo_Thomas_didnt_see_PATRICK.mp3","response":0,"test_part":"test","phrase":"4b_demo_Thomas_didnt_see_PATRICK","trial_type":"audio-button-response","trial_index":5,"time_elapsed":27140,"internal_node_id":"0.0-2.0-0.1"},{"rt":4520,"stimulus":"audio/5a_natural_the_food_didnt_taste_good.mp3","response":0,"test_part":"test","phrase":"5a_natural_the_food_didnt_taste_good","trial_type":"audio-button-response","trial_index":7,"time_elapsed":33269,"internal_node_id":"0.0-2.0-0.2"},{"rt":5219,"stimulus":"audio/4a_natural_Thomas_didnt_see_Patrick.mp3","response":0,"test_part":"test","phrase":"4a_natural_Thomas_didnt_see_Patrick","trial_type":"audio-button-response","trial_index":9,"time_elapsed":41251,"internal_node_id":"0.0-2.0-0.3"},{"rt":12371,"stimulus":"audio/Eb_natural_We_didnt_get_ONE_Christmas_card.mp3","response":1,"test_part":"test","phrase":"Eb_natural_We_didnt_get_ONE_Christmas_card","trial_type":"audio-button-response","trial_index":11,"time_elapsed":55146,"internal_node_id":"0.0-2.0-0.4"},{"rt":7549,"stimulus":"audio/Ab_demo_Ken_didnt_feed_the_CAT.mp3","response":0,"test_part":"test","phrase":"Ab_demo_Ken_didnt_feed_the_CAT","trial_type":"audio-button-response","trial_index":13,"time_elapsed":66588,"internal_node_id":"0.0-2.0-0.5"},{"rt":6989,"stimulus":"audio/Eb_demo_We_didnt_get_ONE_Christmas_card.mp3","response":1,"test_part":"test","phrase":"Eb_demo_We_didnt_get_ONE_Christmas_card","trial_type":"audio-button-response","trial_index":15,"time_elapsed":74828,"internal_node_id":"0.0-2.0-0.6"},{"rt":3851,"stimulus":"audio/2a_demo_Peter_wont_eat_anything.mp3","response":1,"test_part":"test","phrase":"2a_demo_Peter_wont_eat_anything","trial_type":"audio-button-response","trial_index":17,"time_elapsed":79830,"internal_node_id":"0.0-2.0-0.7"},{"rt":3048,"stimulus":"audio/5b_natural_the_food_didnt_taste_GOOD.mp3","response":0,"test_part":"test","phrase":"5b_natural_the_food_didnt_taste_GOOD","trial_type":"audio-button-response","trial_index":19,"time_elapsed":85124,"internal_node_id":"0.0-2.0-0.8"},{"rt":2421,"stimulus":"audio/Db_natural_Mary_doesnt_LIKE_ice_cream.mp3","response":0,"test_part":"test","phrase":"Db_natural_Mary_doesnt_LIKE_ice_cream","trial_type":"audio-button-response","trial_index":21,"time_elapsed":88745,"internal_node_id":"0.0-2.0-0.9"},{"rt":4261,"stimulus":"audio/2b_demo_Peter_wont_eat_ANYTHING.mp3","response":0,"test_part":"test","phrase":"2b_demo_Peter_wont_eat_ANYTHING","trial_type":"audio-button-response","trial_index":23,"time_elapsed":94387,"internal_node_id":"0.0-2.0-0.10"},{"rt":1840,"stimulus":"audio/Da_natural_Mary_doesnt_like_ice_cream.mp3","response":0,"test_part":"test","phrase":"Da_natural_Mary_doesnt_like_ice_cream","trial_type":"audio-button-response","trial_index":25,"time_elapsed":98544,"internal_node_id":"0.0-2.0-0.11"},{"rt":1680,"stimulus":"audio/4a_demo_Thomas_didnt_see_Patrick.mp3","response":0,"test_part":"test","phrase":"4a_demo_Thomas_didnt_see_Patrick","trial_type":"audio-button-response","trial_index":27,"time_elapsed":101141,"internal_node_id":"0.0-2.0-0.12"},{"rt":1699,"stimulus":"audio/Ab_natural_Ken_didnt_feed_the_CAT.mp3","response":0,"test_part":"test","phrase":"Ab_natural_Ken_didnt_feed_the_CAT","trial_type":"audio-button-response","trial_index":29,"time_elapsed":103764,"internal_node_id":"0.0-2.0-0.13"},{"rt":6269,"stimulus":"audio/Cb_demo_Nick_doesnt_listen_to_ANYONE.mp3","response":1,"test_part":"test","phrase":"Cb_demo_Nick_doesnt_listen_to_ANYONE","trial_type":"audio-button-response","trial_index":31,"time_elapsed":110697,"internal_node_id":"0.0-2.0-0.14"},{"rt":1840,"stimulus":"audio/Aa_natural_Ken_didnt_feed_the_cat.mp3","response":0,"test_part":"test","phrase":"Aa_natural_Ken_didnt_feed_the_cat","trial_type":"audio-button-response","trial_index":33,"time_elapsed":115380,"internal_node_id":"0.0-2.0-0.15"},{"rt":2019,"stimulus":"audio/Db_demo_Mary_doesnt_LIKE_ice_cream.mp3","response":0,"test_part":"test","phrase":"Db_demo_Mary_doesnt_LIKE_ice_cream","trial_type":"audio-button-response","trial_index":35,"time_elapsed":118526,"internal_node_id":"0.0-2.0-0.16"},{"rt":1829,"stimulus":"audio/5b_demo_the_food_didnt_taste_GOOD.mp3","response":0,"test_part":"test","phrase":"5b_demo_the_food_didnt_taste_GOOD","trial_type":"audio-button-response","trial_index":37,"time_elapsed":121494,"internal_node_id":"0.0-2.0-0.17"},{"rt":5061,"stimulus":"audio/9a_demo_Arthur_wasnt_tipsy.mp3","response":2,"test_part":"test","phrase":"9a_demo_Arthur_wasnt_tipsy","trial_type":"audio-button-response","trial_index":39,"time_elapsed":128479,"internal_node_id":"0.0-2.0-0.18"},{"rt":5880,"stimulus":"audio/9a_demo_Arthur_wasnt_tipsy.mp3","response":0,"test_part":"test","phrase":"9a_demo_Arthur_wasnt_tipsy","trial_type":"audio-button-response","trial_index":40,"time_elapsed":134366,"internal_node_id":"0.0-2.0-1.18-0.18"},{"rt":1509,"stimulus":"audio/Ea_natural_We_didnt_get_one_Christmas_card.mp3","response":1,"test_part":"test","phrase":"Ea_natural_We_didnt_get_one_Christmas_card","trial_type":"audio-button-response","trial_index":42,"time_elapsed":138252,"internal_node_id":"0.0-2.0-0.19"},{"rt":3720,"stimulus":"audio/3a_demo_Susan_didnt_get_one_credit.mp3","response":0,"test_part":"test","phrase":"3a_demo_Susan_didnt_get_one_credit","trial_type":"audio-button-response","trial_index":44,"time_elapsed":143114,"internal_node_id":"0.0-2.0-0.20"},{"rt":4389,"stimulus":"audio/Ca_demo_Nick_doesnt_listen_to_anyone.mp3","response":0,"test_part":"test","phrase":"Ca_demo_Nick_doesnt_listen_to_anyone","trial_type":"audio-button-response","trial_index":46,"time_elapsed":148743,"internal_node_id":"0.0-2.0-0.21"},{"rt":1480,"stimulus":"audio/Ea_demo_We_didnt_get_one_Christmas_card.mp3","response":1,"test_part":"test","phrase":"Ea_demo_We_didnt_get_one_Christmas_card","trial_type":"audio-button-response","trial_index":48,"time_elapsed":151480,"internal_node_id":"0.0-2.0-0.22"},{"rt":4901,"stimulus":"audio/1a_demo_the_inbox_wasnt_full.mp3","response":0,"test_part":"test","phrase":"1a_demo_the_inbox_wasnt_full","trial_type":"audio-button-response","trial_index":50,"time_elapsed":157071,"internal_node_id":"0.0-2.0-0.23"},{"rt":2091,"stimulus":"audio/Aa_demo_Ken_didnt_feed_the_cat.mp3","response":0,"test_part":"test","phrase":"Aa_demo_Ken_didnt_feed_the_cat","trial_type":"audio-button-response","trial_index":52,"time_elapsed":160075,"internal_node_id":"0.0-2.0-0.24"},{"rt":2189,"stimulus":"audio/2b_natural_Peter_wont_eat_ANYTHING.mp3","response":0,"test_part":"test","phrase":"2b_natural_Peter_wont_eat_ANYTHING","trial_type":"audio-button-response","trial_index":54,"time_elapsed":162852,"internal_node_id":"0.0-2.0-0.25"},{"rt":1392,"stimulus":"audio/1a_natural_the_inbox_wasnt_full.mp3","response":0,"test_part":"test","phrase":"1a_natural_the_inbox_wasnt_full","trial_type":"audio-button-response","trial_index":56,"time_elapsed":164835,"internal_node_id":"0.0-2.0-0.26"},{"rt":1659,"stimulus":"audio/5a_demo_the_food_didnt_taste_good.mp3","response":0,"test_part":"test","phrase":"5a_demo_the_food_didnt_taste_good","trial_type":"audio-button-response","trial_index":58,"time_elapsed":167613,"internal_node_id":"0.0-2.0-0.27"},{"rt":1589,"stimulus":"audio/3a_natural_Susan_didnt_get_one_credit.mp3","response":0,"test_part":"test","phrase":"3a_natural_Susan_didnt_get_one_credit","trial_type":"audio-button-response","trial_index":60,"time_elapsed":170617,"internal_node_id":"0.0-2.0-0.28"},{"rt":1349,"stimulus":"audio/9a_natural_Arthur_wasnt_tipsy.mp3","response":0,"test_part":"test","phrase":"9a_natural_Arthur_wasnt_tipsy","trial_type":"audio-button-response","trial_index":62,"time_elapsed":172804,"internal_node_id":"0.0-2.0-0.29"},{"rt":1389,"stimulus":"audio/Cb_natural_Nick_doesnt_listen_to_ANYONE.mp3","response":0,"test_part":"test","phrase":"Cb_natural_Nick_doesnt_listen_to_ANYONE","trial_type":"audio-button-response","trial_index":64,"time_elapsed":174826,"internal_node_id":"0.0-2.0-0.30"},{"rt":2160,"stimulus":"audio/3b_demo_Susan_didnt_get_ONE_credit.mp3","response":0,"test_part":"test","phrase":"3b_demo_Susan_didnt_get_ONE_credit","trial_type":"audio-button-response","trial_index":66,"time_elapsed":177933,"internal_node_id":"0.0-2.0-0.31"},{"rt":3032,"stimulus":"audio/Ca_natural_Nick_doesnt_listen_to_anyone.mp3","response":0,"test_part":"test","phrase":"Ca_natural_Nick_doesnt_listen_to_anyone","trial_type":"audio-button-response","trial_index":68,"time_elapsed":182079,"internal_node_id":"0.0-2.0-0.32"},{"rt":1219,"stimulus":"audio/Da_demo_Mary_doesnt_like_ice_cream.mp3","response":0,"test_part":"test","phrase":"Da_demo_Mary_doesnt_like_ice_cream","trial_type":"audio-button-response","trial_index":70,"time_elapsed":185214,"internal_node_id":"0.0-2.0-0.33"},{"rt":1091,"stimulus":"audio/3b_natural_Susan_didnt_get_ONE_credit.mp3","response":0,"test_part":"test","phrase":"3b_natural_Susan_didnt_get_ONE_credit","trial_type":"audio-button-response","trial_index":72,"time_elapsed":187989,"internal_node_id":"0.0-2.0-0.34"},{"rt":1021,"stimulus":"audio/9b_demo_Arthur_wasnt_TIPSY.mp3","response":0,"test_part":"test","phrase":"9b_demo_Arthur_wasnt_TIPSY","trial_type":"audio-button-response","trial_index":74,"time_elapsed":189947,"internal_node_id":"0.0-2.0-0.35"},{"rt":1019,"stimulus":"audio/1b_natural_the_inbox_wasnt_FULL.mp3","response":0,"test_part":"test","phrase":"1b_natural_the_inbox_wasnt_FULL","trial_type":"audio-button-response","trial_index":76,"time_elapsed":191852,"internal_node_id":"0.0-2.0-0.36"},{"rt":971,"stimulus":"audio/9b_natural_Arthur_wasnt_TIPSY.mp3","response":0,"test_part":"test","phrase":"9b_natural_Arthur_wasnt_TIPSY","trial_type":"audio-button-response","trial_index":78,"time_elapsed":193758,"internal_node_id":"0.0-2.0-0.37"},{"rt":1200,"stimulus":"audio/4b_natural_Thomas_didnt_see_PATRICK.mp3","response":0,"test_part":"test","phrase":"4b_natural_Thomas_didnt_see_PATRICK","trial_type":"audio-button-response","trial_index":80,"time_elapsed":195895,"internal_node_id":"0.0-2.0-0.38"},{"rt":1040,"stimulus":"audio/1b_demo_the_inbox_wasnt_FULL.mp3","response":0,"test_part":"test","phrase":"1b_demo_the_inbox_wasnt_FULL","trial_type":"audio-button-response","trial_index":82,"time_elapsed":198083,"internal_node_id":"0.0-2.0-0.39"}]