[{"rt":6091,"stimulus":"audio/9a_natural_Arthur_wasnt_tipsy.mp3","response":2,"test_part":"test","phrase":"9a_natural_Arthur_wasnt_tipsy","trial_type":"audio-button-response","trial_index":2,"time_elapsed":10890,"internal_node_id":"0.0-2.0-0.0"},{"rt":7000,"stimulus":"audio/9a_natural_Arthur_wasnt_tipsy.mp3","response":0,"test_part":"test","phrase":"9a_natural_Arthur_wasnt_tipsy","trial_type":"audio-button-response","trial_index":3,"time_elapsed":17896,"internal_node_id":"0.0-2.0-1.0-0.0"},{"rt":5680,"stimulus":"audio/4a_natural_Thomas_didnt_see_Patrick.mp3","response":0,"test_part":"test","phrase":"4a_natural_Thomas_didnt_see_Patrick","trial_type":"audio-button-response","trial_index":5,"time_elapsed":25721,"internal_node_id":"0.0-2.0-0.1"},{"rt":5571,"stimulus":"audio/Aa_demo_Ken_didnt_feed_the_cat.mp3","response":0,"test_part":"test","phrase":"Aa_demo_Ken_didnt_feed_the_cat","trial_type":"audio-button-response","trial_index":7,"time_elapsed":33759,"internal_node_id":"0.0-2.0-0.2"},{"rt":3608,"stimulus":"audio/Eb_natural_We_didnt_get_ONE_Christmas_card.mp3","response":1,"test_part":"test","phrase":"Eb_natural_We_didnt_get_ONE_Christmas_card","trial_type":"audio-button-response","trial_index":9,"time_elapsed":39024,"internal_node_id":"0.0-2.0-0.3"},{"rt":4480,"stimulus":"audio/5b_natural_the_food_didnt_taste_GOOD.mp3","response":1,"test_part":"test","phrase":"5b_natural_the_food_didnt_taste_GOOD","trial_type":"audio-button-response","trial_index":11,"time_elapsed":48964,"internal_node_id":"0.0-2.0-0.4"},{"rt":5120,"stimulus":"audio/9a_demo_Arthur_wasnt_tipsy.mp3","response":2,"test_part":"test","phrase":"9a_demo_Arthur_wasnt_tipsy","trial_type":"audio-button-response","trial_index":13,"time_elapsed":55277,"internal_node_id":"0.0-2.0-0.5"},{"rt":3160,"stimulus":"audio/9a_demo_Arthur_wasnt_tipsy.mp3","response":1,"test_part":"test","phrase":"9a_demo_Arthur_wasnt_tipsy","trial_type":"audio-button-response","trial_index":14,"time_elapsed":58447,"internal_node_id":"0.0-2.0-1.5-0.5"},{"rt":4269,"stimulus":"audio/5a_demo_the_food_didnt_taste_good.mp3","response":0,"test_part":"test","phrase":"5a_demo_the_food_didnt_taste_good","trial_type":"audio-button-response","trial_index":16,"time_elapsed":64102,"internal_node_id":"0.0-2.0-0.6"},{"rt":3581,"stimulus":"audio/4b_natural_Thomas_didnt_see_PATRICK.mp3","response":1,"test_part":"test","phrase":"4b_natural_Thomas_didnt_see_PATRICK","trial_type":"audio-button-response","trial_index":18,"time_elapsed":68976,"internal_node_id":"0.0-2.0-0.7"},{"rt":3899,"stimulus":"audio/3b_demo_Susan_didnt_get_ONE_credit.mp3","response":1,"test_part":"test","phrase":"3b_demo_Susan_didnt_get_ONE_credit","trial_type":"audio-button-response","trial_index":20,"time_elapsed":74668,"internal_node_id":"0.0-2.0-0.8"},{"rt":5171,"stimulus":"audio/Cb_natural_Nick_doesnt_listen_to_ANYONE.mp3","response":2,"test_part":"test","phrase":"Cb_natural_Nick_doesnt_listen_to_ANYONE","trial_type":"audio-button-response","trial_index":22,"time_elapsed":81096,"internal_node_id":"0.0-2.0-0.9"},{"rt":4131,"stimulus":"audio/Cb_natural_Nick_doesnt_listen_to_ANYONE.mp3","response":1,"test_part":"test","phrase":"Cb_natural_Nick_doesnt_listen_to_ANYONE","trial_type":"audio-button-response","trial_index":23,"time_elapsed":85232,"internal_node_id":"0.0-2.0-1.9-0.9"},{"rt":5179,"stimulus":"audio/Da_demo_Mary_doesnt_like_ice_cream.mp3","response":2,"test_part":"test","phrase":"Da_demo_Mary_doesnt_like_ice_cream","trial_type":"audio-button-response","trial_index":25,"time_elapsed":91675,"internal_node_id":"0.0-2.0-0.10"},{"rt":2669,"stimulus":"audio/Da_demo_Mary_doesnt_like_ice_cream.mp3","response":0,"test_part":"test","phrase":"Da_demo_Mary_doesnt_like_ice_cream","trial_type":"audio-button-response","trial_index":26,"time_elapsed":94343,"internal_node_id":"0.0-2.0-1.10-0.10"},{"rt":3971,"stimulus":"audio/Ca_natural_Nick_doesnt_listen_to_anyone.mp3","response":0,"test_part":"test","phrase":"Ca_natural_Nick_doesnt_listen_to_anyone","trial_type":"audio-button-response","trial_index":28,"time_elapsed":99127,"internal_node_id":"0.0-2.0-0.11"},{"rt":5829,"stimulus":"audio/9b_natural_Arthur_wasnt_TIPSY.mp3","response":2,"test_part":"test","phrase":"9b_natural_Arthur_wasnt_TIPSY","trial_type":"audio-button-response","trial_index":30,"time_elapsed":105901,"internal_node_id":"0.0-2.0-0.12"},{"rt":11280,"stimulus":"audio/9b_natural_Arthur_wasnt_TIPSY.mp3","response":1,"test_part":"test","phrase":"9b_natural_Arthur_wasnt_TIPSY","trial_type":"audio-button-response","trial_index":31,"time_elapsed":117183,"internal_node_id":"0.0-2.0-1.12-0.12"},{"rt":7099,"stimulus":"audio/Ea_demo_We_didnt_get_one_Christmas_card.mp3","response":2,"test_part":"test","phrase":"Ea_demo_We_didnt_get_one_Christmas_card","trial_type":"audio-button-response","trial_index":33,"time_elapsed":125314,"internal_node_id":"0.0-2.0-0.13"},{"rt":2931,"stimulus":"audio/Ea_demo_We_didnt_get_one_Christmas_card.mp3","response":0,"test_part":"test","phrase":"Ea_demo_We_didnt_get_one_Christmas_card","trial_type":"audio-button-response","trial_index":34,"time_elapsed":128240,"internal_node_id":"0.0-2.0-1.13-0.13"},{"rt":6389,"stimulus":"audio/9b_demo_Arthur_wasnt_TIPSY.mp3","response":2,"test_part":"test","phrase":"9b_demo_Arthur_wasnt_TIPSY","trial_type":"audio-button-response","trial_index":36,"time_elapsed":135640,"internal_node_id":"0.0-2.0-0.14"},{"rt":3189,"stimulus":"audio/9b_demo_Arthur_wasnt_TIPSY.mp3","response":0,"test_part":"test","phrase":"9b_demo_Arthur_wasnt_TIPSY","trial_type":"audio-button-response","trial_index":37,"time_elapsed":138831,"internal_node_id":"0.0-2.0-1.14-0.14"},{"rt":4421,"stimulus":"audio/4a_demo_Thomas_didnt_see_Patrick.mp3","response":0,"test_part":"test","phrase":"4a_demo_Thomas_didnt_see_Patrick","trial_type":"audio-button-response","trial_index":39,"time_elapsed":144041,"internal_node_id":"0.0-2.0-0.15"},{"rt":7360,"stimulus":"audio/3b_natural_Susan_didnt_get_ONE_credit.mp3","response":2,"test_part":"test","phrase":"3b_natural_Susan_didnt_get_ONE_credit","trial_type":"audio-button-response","trial_index":41,"time_elapsed":152766,"internal_node_id":"0.0-2.0-0.16"},{"rt":5819,"stimulus":"audio/3b_natural_Susan_didnt_get_ONE_credit.mp3","response":1,"test_part":"test","phrase":"3b_natural_Susan_didnt_get_ONE_credit","trial_type":"audio-button-response","trial_index":42,"time_elapsed":158595,"internal_node_id":"0.0-2.0-1.16-0.16"},{"rt":2549,"stimulus":"audio/5a_natural_the_food_didnt_taste_good.mp3","response":0,"test_part":"test","phrase":"5a_natural_the_food_didnt_taste_good","trial_type":"audio-button-response","trial_index":44,"time_elapsed":162065,"internal_node_id":"0.0-2.0-0.17"},{"rt":4131,"stimulus":"audio/1a_demo_the_inbox_wasnt_full.mp3","response":0,"test_part":"test","phrase":"1a_demo_the_inbox_wasnt_full","trial_type":"audio-button-response","trial_index":46,"time_elapsed":166959,"internal_node_id":"0.0-2.0-0.18"},{"rt":9669,"stimulus":"audio/Ab_natural_Ken_didnt_feed_the_CAT.mp3","response":2,"test_part":"test","phrase":"Ab_natural_Ken_didnt_feed_the_CAT","trial_type":"audio-button-response","trial_index":48,"time_elapsed":177842,"internal_node_id":"0.0-2.0-0.19"},{"rt":4979,"stimulus":"audio/Ab_natural_Ken_didnt_feed_the_CAT.mp3","response":1,"test_part":"test","phrase":"Ab_natural_Ken_didnt_feed_the_CAT","trial_type":"audio-button-response","trial_index":49,"time_elapsed":182823,"internal_node_id":"0.0-2.0-1.19-0.19"},{"rt":7701,"stimulus":"audio/1b_demo_the_inbox_wasnt_FULL.mp3","response":0,"test_part":"test","phrase":"1b_demo_the_inbox_wasnt_FULL","trial_type":"audio-button-response","trial_index":51,"time_elapsed":192328,"internal_node_id":"0.0-2.0-0.20"},{"rt":2629,"stimulus":"audio/3a_natural_Susan_didnt_get_one_credit.mp3","response":0,"test_part":"test","phrase":"3a_natural_Susan_didnt_get_one_credit","trial_type":"audio-button-response","trial_index":53,"time_elapsed":195924,"internal_node_id":"0.0-2.0-0.21"},{"rt":3589,"stimulus":"audio/1b_natural_the_inbox_wasnt_FULL.mp3","response":0,"test_part":"test","phrase":"1b_natural_the_inbox_wasnt_FULL","trial_type":"audio-button-response","trial_index":55,"time_elapsed":200623,"internal_node_id":"0.0-2.0-0.22"},{"rt":2840,"stimulus":"audio/Da_natural_Mary_doesnt_like_ice_cream.mp3","response":0,"test_part":"test","phrase":"Da_natural_Mary_doesnt_like_ice_cream","trial_type":"audio-button-response","trial_index":57,"time_elapsed":204351,"internal_node_id":"0.0-2.0-0.23"},{"rt":3171,"stimulus":"audio/1a_natural_the_inbox_wasnt_full.mp3","response":0,"test_part":"test","phrase":"1a_natural_the_inbox_wasnt_full","trial_type":"audio-button-response","trial_index":59,"time_elapsed":208256,"internal_node_id":"0.0-2.0-0.24"},{"rt":4101,"stimulus":"audio/Db_natural_Mary_doesnt_LIKE_ice_cream.mp3","response":2,"test_part":"test","phrase":"Db_natural_Mary_doesnt_LIKE_ice_cream","trial_type":"audio-button-response","trial_index":61,"time_elapsed":213082,"internal_node_id":"0.0-2.0-0.25"},{"rt":2419,"stimulus":"audio/Db_natural_Mary_doesnt_LIKE_ice_cream.mp3","response":1,"test_part":"test","phrase":"Db_natural_Mary_doesnt_LIKE_ice_cream","trial_type":"audio-button-response","trial_index":62,"time_elapsed":215505,"internal_node_id":"0.0-2.0-1.25-0.25"},{"rt":2811,"stimulus":"audio/Eb_demo_We_didnt_get_ONE_Christmas_card.mp3","response":1,"test_part":"test","phrase":"Eb_demo_We_didnt_get_ONE_Christmas_card","trial_type":"audio-button-response","trial_index":64,"time_elapsed":219529,"internal_node_id":"0.0-2.0-0.26"},{"rt":3571,"stimulus":"audio/Db_demo_Mary_doesnt_LIKE_ice_cream.mp3","response":2,"test_part":"test","phrase":"Db_demo_Mary_doesnt_LIKE_ice_cream","trial_type":"audio-button-response","trial_index":66,"time_elapsed":224051,"internal_node_id":"0.0-2.0-0.27"},{"rt":4709,"stimulus":"audio/Db_demo_Mary_doesnt_LIKE_ice_cream.mp3","response":1,"test_part":"test","phrase":"Db_demo_Mary_doesnt_LIKE_ice_cream","trial_type":"audio-button-response","trial_index":67,"time_elapsed":228765,"internal_node_id":"0.0-2.0-1.27-0.27"},{"rt":2931,"stimulus":"audio/2a_demo_Peter_wont_eat_anything.mp3","response":0,"test_part":"test","phrase":"2a_demo_Peter_wont_eat_anything","trial_type":"audio-button-response","trial_index":69,"time_elapsed":232810,"internal_node_id":"0.0-2.0-0.28"},{"rt":2611,"stimulus":"audio/Ca_demo_Nick_doesnt_listen_to_anyone.mp3","response":0,"test_part":"test","phrase":"Ca_demo_Nick_doesnt_listen_to_anyone","trial_type":"audio-button-response","trial_index":71,"time_elapsed":236477,"internal_node_id":"0.0-2.0-0.29"},{"rt":4208,"stimulus":"audio/Ab_demo_Ken_didnt_feed_the_CAT.mp3","response":1,"test_part":"test","phrase":"Ab_demo_Ken_didnt_feed_the_CAT","trial_type":"audio-button-response","trial_index":73,"time_elapsed":242223,"internal_node_id":"0.0-2.0-0.30"},{"rt":3189,"stimulus":"audio/5b_demo_the_food_didnt_taste_GOOD.mp3","response":1,"test_part":"test","phrase":"5b_demo_the_food_didnt_taste_GOOD","trial_type":"audio-button-response","trial_index":75,"time_elapsed":246472,"internal_node_id":"0.0-2.0-0.31"},{"rt":2752,"stimulus":"audio/2a_natural_Peter_wont_eat_anything.mp3","response":0,"test_part":"test","phrase":"2a_natural_Peter_wont_eat_anything","trial_type":"audio-button-response","trial_index":77,"time_elapsed":250015,"internal_node_id":"0.0-2.0-0.32"},{"rt":4549,"stimulus":"audio/Ea_natural_We_didnt_get_one_Christmas_card.mp3","response":2,"test_part":"test","phrase":"Ea_natural_We_didnt_get_one_Christmas_card","trial_type":"audio-button-response","trial_index":79,"time_elapsed":255666,"internal_node_id":"0.0-2.0-0.33"},{"rt":3421,"stimulus":"audio/Ea_natural_We_didnt_get_one_Christmas_card.mp3","response":1,"test_part":"test","phrase":"Ea_natural_We_didnt_get_one_Christmas_card","trial_type":"audio-button-response","trial_index":80,"time_elapsed":259095,"internal_node_id":"0.0-2.0-1.33-0.33"},{"rt":3411,"stimulus":"audio/3a_demo_Susan_didnt_get_one_credit.mp3","response":0,"test_part":"test","phrase":"3a_demo_Susan_didnt_get_one_credit","trial_type":"audio-button-response","trial_index":82,"time_elapsed":263885,"internal_node_id":"0.0-2.0-0.34"},{"rt":3811,"stimulus":"audio/Cb_demo_Nick_doesnt_listen_to_ANYONE.mp3","response":1,"test_part":"test","phrase":"Cb_demo_Nick_doesnt_listen_to_ANYONE","trial_type":"audio-button-response","trial_index":84,"time_elapsed":268875,"internal_node_id":"0.0-2.0-0.35"},{"rt":3389,"stimulus":"audio/4b_demo_Thomas_didnt_see_PATRICK.mp3","response":0,"test_part":"test","phrase":"4b_demo_Thomas_didnt_see_PATRICK","trial_type":"audio-button-response","trial_index":86,"time_elapsed":273110,"internal_node_id":"0.0-2.0-0.36"},{"rt":2739,"stimulus":"audio/2b_natural_Peter_wont_eat_ANYTHING.mp3","response":0,"test_part":"test","phrase":"2b_natural_Peter_wont_eat_ANYTHING","trial_type":"audio-button-response","trial_index":88,"time_elapsed":276505,"internal_node_id":"0.0-2.0-0.37"},{"rt":3600,"stimulus":"audio/Aa_natural_Ken_didnt_feed_the_cat.mp3","response":0,"test_part":"test","phrase":"Aa_natural_Ken_didnt_feed_the_cat","trial_type":"audio-button-response","trial_index":90,"time_elapsed":281166,"internal_node_id":"0.0-2.0-0.38"},{"rt":2211,"stimulus":"audio/2b_demo_Peter_wont_eat_ANYTHING.mp3","response":0,"test_part":"test","phrase":"2b_demo_Peter_wont_eat_ANYTHING","trial_type":"audio-button-response","trial_index":92,"time_elapsed":284209,"internal_node_id":"0.0-2.0-0.39"}]