[{"rt":7709,"stimulus":"audio/Ca_demo_Nick_doesnt_listen_to_anyone.mp3","response":1,"test_part":"test","phrase":"Ca_demo_Nick_doesnt_listen_to_anyone","trial_type":"audio-button-response","trial_index":2,"time_elapsed":21990,"internal_node_id":"0.0-2.0-0.0"},{"rt":10461,"stimulus":"audio/Eb_natural_We_didnt_get_ONE_Christmas_card.mp3","response":2,"test_part":"test","phrase":"Eb_natural_We_didnt_get_ONE_Christmas_card","trial_type":"audio-button-response","trial_index":4,"time_elapsed":34412,"internal_node_id":"0.0-2.0-0.1"},{"rt":6841,"stimulus":"audio/Eb_natural_We_didnt_get_ONE_Christmas_card.mp3","response":1,"test_part":"test","phrase":"Eb_natural_We_didnt_get_ONE_Christmas_card","trial_type":"audio-button-response","trial_index":5,"time_elapsed":41252,"internal_node_id":"0.0-2.0-1.1-0.1"},{"rt":7613,"stimulus":"audio/Da_demo_Mary_doesnt_like_ice_cream.mp3","response":2,"test_part":"test","phrase":"Da_demo_Mary_doesnt_like_ice_cream","trial_type":"audio-button-response","trial_index":7,"time_elapsed":50392,"internal_node_id":"0.0-2.0-0.2"},{"rt":3030,"stimulus":"audio/Da_demo_Mary_doesnt_like_ice_cream.mp3","response":1,"test_part":"test","phrase":"Da_demo_Mary_doesnt_like_ice_cream","trial_type":"audio-button-response","trial_index":8,"time_elapsed":53424,"internal_node_id":"0.0-2.0-1.2-0.2"},{"rt":5312,"stimulus":"audio/1a_natural_the_inbox_wasnt_full.mp3","response":0,"test_part":"test","phrase":"1a_natural_the_inbox_wasnt_full","trial_type":"audio-button-response","trial_index":10,"time_elapsed":60466,"internal_node_id":"0.0-2.0-0.3"},{"rt":11244,"stimulus":"audio/Aa_demo_Ken_didnt_feed_the_cat.mp3","response":1,"test_part":"test","phrase":"Aa_demo_Ken_didnt_feed_the_cat","trial_type":"audio-button-response","trial_index":12,"time_elapsed":74103,"internal_node_id":"0.0-2.0-0.4"},{"rt":6827,"stimulus":"audio/Db_demo_Mary_doesnt_LIKE_ice_cream.mp3","response":2,"test_part":"test","phrase":"Db_demo_Mary_doesnt_LIKE_ice_cream","trial_type":"audio-button-response","trial_index":14,"time_elapsed":82291,"internal_node_id":"0.0-2.0-0.5"},{"rt":10147,"stimulus":"audio/Db_demo_Mary_doesnt_LIKE_ice_cream.mp3","response":1,"test_part":"test","phrase":"Db_demo_Mary_doesnt_LIKE_ice_cream","trial_type":"audio-button-response","trial_index":15,"time_elapsed":92441,"internal_node_id":"0.0-2.0-1.5-0.5"},{"rt":9178,"stimulus":"audio/4a_demo_Thomas_didnt_see_Patrick.mp3","response":2,"test_part":"test","phrase":"4a_demo_Thomas_didnt_see_Patrick","trial_type":"audio-button-response","trial_index":17,"time_elapsed":102898,"internal_node_id":"0.0-2.0-0.6"},{"rt":2543,"stimulus":"audio/4a_demo_Thomas_didnt_see_Patrick.mp3","response":1,"test_part":"test","phrase":"4a_demo_Thomas_didnt_see_Patrick","trial_type":"audio-button-response","trial_index":18,"time_elapsed":105440,"internal_node_id":"0.0-2.0-1.6-0.6"},{"rt":3230,"stimulus":"audio/Da_natural_Mary_doesnt_like_ice_cream.mp3","response":0,"test_part":"test","phrase":"Da_natural_Mary_doesnt_like_ice_cream","trial_type":"audio-button-response","trial_index":20,"time_elapsed":109984,"internal_node_id":"0.0-2.0-0.7"},{"rt":8948,"stimulus":"audio/Cb_demo_Nick_doesnt_listen_to_ANYONE.mp3","response":2,"test_part":"test","phrase":"Cb_demo_Nick_doesnt_listen_to_ANYONE","trial_type":"audio-button-response","trial_index":22,"time_elapsed":120319,"internal_node_id":"0.0-2.0-0.8"},{"rt":14840,"stimulus":"audio/Cb_demo_Nick_doesnt_listen_to_ANYONE.mp3","response":1,"test_part":"test","phrase":"Cb_demo_Nick_doesnt_listen_to_ANYONE","trial_type":"audio-button-response","trial_index":23,"time_elapsed":135161,"internal_node_id":"0.0-2.0-1.8-0.8"},{"rt":4162,"stimulus":"audio/4a_natural_Thomas_didnt_see_Patrick.mp3","response":0,"test_part":"test","phrase":"4a_natural_Thomas_didnt_see_Patrick","trial_type":"audio-button-response","trial_index":25,"time_elapsed":140936,"internal_node_id":"0.0-2.0-0.9"},{"rt":5047,"stimulus":"audio/3a_natural_Susan_didnt_get_one_credit.mp3","response":0,"test_part":"test","phrase":"3a_natural_Susan_didnt_get_one_credit","trial_type":"audio-button-response","trial_index":27,"time_elapsed":147302,"internal_node_id":"0.0-2.0-0.10"},{"rt":11416,"stimulus":"audio/9b_demo_Arthur_wasnt_TIPSY.mp3","response":2,"test_part":"test","phrase":"9b_demo_Arthur_wasnt_TIPSY","trial_type":"audio-button-response","trial_index":29,"time_elapsed":159898,"internal_node_id":"0.0-2.0-0.11"},{"rt":6600,"stimulus":"audio/9b_demo_Arthur_wasnt_TIPSY.mp3","response":0,"test_part":"test","phrase":"9b_demo_Arthur_wasnt_TIPSY","trial_type":"audio-button-response","trial_index":30,"time_elapsed":166500,"internal_node_id":"0.0-2.0-1.11-0.11"},{"rt":6531,"stimulus":"audio/Eb_demo_We_didnt_get_ONE_Christmas_card.mp3","response":2,"test_part":"test","phrase":"Eb_demo_We_didnt_get_ONE_Christmas_card","trial_type":"audio-button-response","trial_index":32,"time_elapsed":174295,"internal_node_id":"0.0-2.0-0.12"},{"rt":2650,"stimulus":"audio/Eb_demo_We_didnt_get_ONE_Christmas_card.mp3","response":1,"test_part":"test","phrase":"Eb_demo_We_didnt_get_ONE_Christmas_card","trial_type":"audio-button-response","trial_index":33,"time_elapsed":176947,"internal_node_id":"0.0-2.0-1.12-0.12"},{"rt":8719,"stimulus":"audio/2b_demo_Peter_wont_eat_ANYTHING.mp3","response":2,"test_part":"test","phrase":"2b_demo_Peter_wont_eat_ANYTHING","trial_type":"audio-button-response","trial_index":35,"time_elapsed":186885,"internal_node_id":"0.0-2.0-0.13"},{"rt":2482,"stimulus":"audio/2b_demo_Peter_wont_eat_ANYTHING.mp3","response":1,"test_part":"test","phrase":"2b_demo_Peter_wont_eat_ANYTHING","trial_type":"audio-button-response","trial_index":36,"time_elapsed":189369,"internal_node_id":"0.0-2.0-1.13-0.13"},{"rt":6592,"stimulus":"audio/1a_demo_the_inbox_wasnt_full.mp3","response":2,"test_part":"test","phrase":"1a_demo_the_inbox_wasnt_full","trial_type":"audio-button-response","trial_index":38,"time_elapsed":197162,"internal_node_id":"0.0-2.0-0.14"},{"rt":14492,"stimulus":"audio/1a_demo_the_inbox_wasnt_full.mp3","response":1,"test_part":"test","phrase":"1a_demo_the_inbox_wasnt_full","trial_type":"audio-button-response","trial_index":39,"time_elapsed":211655,"internal_node_id":"0.0-2.0-1.14-0.14"},{"rt":9332,"stimulus":"audio/9b_natural_Arthur_wasnt_TIPSY.mp3","response":2,"test_part":"test","phrase":"9b_natural_Arthur_wasnt_TIPSY","trial_type":"audio-button-response","trial_index":41,"time_elapsed":222332,"internal_node_id":"0.0-2.0-0.15"},{"rt":4928,"stimulus":"audio/9b_natural_Arthur_wasnt_TIPSY.mp3","response":0,"test_part":"test","phrase":"9b_natural_Arthur_wasnt_TIPSY","trial_type":"audio-button-response","trial_index":42,"time_elapsed":227262,"internal_node_id":"0.0-2.0-1.15-0.15"},{"rt":3875,"stimulus":"audio/4b_natural_Thomas_didnt_see_PATRICK.mp3","response":1,"test_part":"test","phrase":"4b_natural_Thomas_didnt_see_PATRICK","trial_type":"audio-button-response","trial_index":44,"time_elapsed":232308,"internal_node_id":"0.0-2.0-0.16"},{"rt":12066,"stimulus":"audio/9a_natural_Arthur_wasnt_tipsy.mp3","response":0,"test_part":"test","phrase":"9a_natural_Arthur_wasnt_tipsy","trial_type":"audio-button-response","trial_index":46,"time_elapsed":245418,"internal_node_id":"0.0-2.0-0.17"},{"rt":4743,"stimulus":"audio/3b_natural_Susan_didnt_get_ONE_credit.mp3","response":1,"test_part":"test","phrase":"3b_natural_Susan_didnt_get_ONE_credit","trial_type":"audio-button-response","trial_index":48,"time_elapsed":251450,"internal_node_id":"0.0-2.0-0.18"},{"rt":10330,"stimulus":"audio/5b_natural_the_food_didnt_taste_GOOD.mp3","response":1,"test_part":"test","phrase":"5b_natural_the_food_didnt_taste_GOOD","trial_type":"audio-button-response","trial_index":50,"time_elapsed":262971,"internal_node_id":"0.0-2.0-0.19"},{"rt":5538,"stimulus":"audio/9a_demo_Arthur_wasnt_tipsy.mp3","response":1,"test_part":"test","phrase":"9a_demo_Arthur_wasnt_tipsy","trial_type":"audio-button-response","trial_index":52,"time_elapsed":269721,"internal_node_id":"0.0-2.0-0.20"},{"rt":4171,"stimulus":"audio/5a_natural_the_food_didnt_taste_good.mp3","response":0,"test_part":"test","phrase":"5a_natural_the_food_didnt_taste_good","trial_type":"audio-button-response","trial_index":54,"time_elapsed":275537,"internal_node_id":"0.0-2.0-0.21"},{"rt":3785,"stimulus":"audio/Aa_natural_Ken_didnt_feed_the_cat.mp3","response":0,"test_part":"test","phrase":"Aa_natural_Ken_didnt_feed_the_cat","trial_type":"audio-button-response","trial_index":56,"time_elapsed":280550,"internal_node_id":"0.0-2.0-0.22"},{"rt":4673,"stimulus":"audio/2b_natural_Peter_wont_eat_ANYTHING.mp3","response":0,"test_part":"test","phrase":"2b_natural_Peter_wont_eat_ANYTHING","trial_type":"audio-button-response","trial_index":58,"time_elapsed":286116,"internal_node_id":"0.0-2.0-0.23"},{"rt":5912,"stimulus":"audio/5b_demo_the_food_didnt_taste_GOOD.mp3","response":1,"test_part":"test","phrase":"5b_demo_the_food_didnt_taste_GOOD","trial_type":"audio-button-response","trial_index":60,"time_elapsed":293290,"internal_node_id":"0.0-2.0-0.24"},{"rt":5288,"stimulus":"audio/2a_natural_Peter_wont_eat_anything.mp3","response":0,"test_part":"test","phrase":"2a_natural_Peter_wont_eat_anything","trial_type":"audio-button-response","trial_index":62,"time_elapsed":299734,"internal_node_id":"0.0-2.0-0.25"},{"rt":7372,"stimulus":"audio/4b_demo_Thomas_didnt_see_PATRICK.mp3","response":1,"test_part":"test","phrase":"4b_demo_Thomas_didnt_see_PATRICK","trial_type":"audio-button-response","trial_index":64,"time_elapsed":308028,"internal_node_id":"0.0-2.0-0.26"},{"rt":2958,"stimulus":"audio/3b_demo_Susan_didnt_get_ONE_credit.mp3","response":1,"test_part":"test","phrase":"3b_demo_Susan_didnt_get_ONE_credit","trial_type":"audio-button-response","trial_index":66,"time_elapsed":312044,"internal_node_id":"0.0-2.0-0.27"},{"rt":2560,"stimulus":"audio/Ea_natural_We_didnt_get_one_Christmas_card.mp3","response":1,"test_part":"test","phrase":"Ea_natural_We_didnt_get_one_Christmas_card","trial_type":"audio-button-response","trial_index":68,"time_elapsed":315525,"internal_node_id":"0.0-2.0-0.28"},{"rt":9305,"stimulus":"audio/5a_demo_the_food_didnt_taste_good.mp3","response":1,"test_part":"test","phrase":"5a_demo_the_food_didnt_taste_good","trial_type":"audio-button-response","trial_index":70,"time_elapsed":325621,"internal_node_id":"0.0-2.0-0.29"},{"rt":2888,"stimulus":"audio/Ea_demo_We_didnt_get_one_Christmas_card.mp3","response":0,"test_part":"test","phrase":"Ea_demo_We_didnt_get_one_Christmas_card","trial_type":"audio-button-response","trial_index":72,"time_elapsed":329493,"internal_node_id":"0.0-2.0-0.30"},{"rt":11552,"stimulus":"audio/Cb_natural_Nick_doesnt_listen_to_ANYONE.mp3","response":2,"test_part":"test","phrase":"Cb_natural_Nick_doesnt_listen_to_ANYONE","trial_type":"audio-button-response","trial_index":74,"time_elapsed":343055,"internal_node_id":"0.0-2.0-0.31"},{"rt":2641,"stimulus":"audio/Cb_natural_Nick_doesnt_listen_to_ANYONE.mp3","response":1,"test_part":"test","phrase":"Cb_natural_Nick_doesnt_listen_to_ANYONE","trial_type":"audio-button-response","trial_index":75,"time_elapsed":345699,"internal_node_id":"0.0-2.0-1.31-0.31"},{"rt":5828,"stimulus":"audio/2a_demo_Peter_wont_eat_anything.mp3","response":1,"test_part":"test","phrase":"2a_demo_Peter_wont_eat_anything","trial_type":"audio-button-response","trial_index":77,"time_elapsed":352628,"internal_node_id":"0.0-2.0-0.32"},{"rt":2905,"stimulus":"audio/Ca_natural_Nick_doesnt_listen_to_anyone.mp3","response":0,"test_part":"test","phrase":"Ca_natural_Nick_doesnt_listen_to_anyone","trial_type":"audio-button-response","trial_index":79,"time_elapsed":356796,"internal_node_id":"0.0-2.0-0.33"},{"rt":4600,"stimulus":"audio/Db_natural_Mary_doesnt_LIKE_ice_cream.mp3","response":1,"test_part":"test","phrase":"Db_natural_Mary_doesnt_LIKE_ice_cream","trial_type":"audio-button-response","trial_index":81,"time_elapsed":362060,"internal_node_id":"0.0-2.0-0.34"},{"rt":2781,"stimulus":"audio/3a_demo_Susan_didnt_get_one_credit.mp3","response":0,"test_part":"test","phrase":"3a_demo_Susan_didnt_get_one_credit","trial_type":"audio-button-response","trial_index":83,"time_elapsed":365630,"internal_node_id":"0.0-2.0-0.35"},{"rt":4577,"stimulus":"audio/1b_natural_the_inbox_wasnt_FULL.mp3","response":0,"test_part":"test","phrase":"1b_natural_the_inbox_wasnt_FULL","trial_type":"audio-button-response","trial_index":85,"time_elapsed":370784,"internal_node_id":"0.0-2.0-0.36"},{"rt":3950,"stimulus":"audio/Ab_natural_Ken_didnt_feed_the_CAT.mp3","response":1,"test_part":"test","phrase":"Ab_natural_Ken_didnt_feed_the_CAT","trial_type":"audio-button-response","trial_index":87,"time_elapsed":376620,"internal_node_id":"0.0-2.0-0.37"},{"rt":4989,"stimulus":"audio/1b_demo_the_inbox_wasnt_FULL.mp3","response":0,"test_part":"test","phrase":"1b_demo_the_inbox_wasnt_FULL","trial_type":"audio-button-response","trial_index":89,"time_elapsed":382413,"internal_node_id":"0.0-2.0-0.38"},{"rt":3135,"stimulus":"audio/Ab_demo_Ken_didnt_feed_the_CAT.mp3","response":1,"test_part":"test","phrase":"Ab_demo_Ken_didnt_feed_the_CAT","trial_type":"audio-button-response","trial_index":91,"time_elapsed":386415,"internal_node_id":"0.0-2.0-0.39"}]