[{"rt":4669,"stimulus":"audio/1b_demo_the_inbox_wasnt_FULL.mp3","response":2,"test_part":"test","phrase":"1b_demo_the_inbox_wasnt_FULL","trial_type":"audio-button-response","trial_index":2,"time_elapsed":8847,"internal_node_id":"0.0-2.0-0.0"},{"rt":8451,"stimulus":"audio/1b_demo_the_inbox_wasnt_FULL.mp3","response":0,"test_part":"test","phrase":"1b_demo_the_inbox_wasnt_FULL","trial_type":"audio-button-response","trial_index":3,"time_elapsed":17307,"internal_node_id":"0.0-2.0-1.0-0.0"},{"rt":5091,"stimulus":"audio/2a_natural_Peter_wont_eat_anything.mp3","response":2,"test_part":"test","phrase":"2a_natural_Peter_wont_eat_anything","trial_type":"audio-button-response","trial_index":5,"time_elapsed":27145,"internal_node_id":"0.0-2.0-0.1"},{"rt":7160,"stimulus":"audio/2a_natural_Peter_wont_eat_anything.mp3","response":1,"test_part":"test","phrase":"2a_natural_Peter_wont_eat_anything","trial_type":"audio-button-response","trial_index":6,"time_elapsed":34313,"internal_node_id":"0.0-2.0-1.1-0.1"},{"rt":6040,"stimulus":"audio/9b_demo_Arthur_wasnt_TIPSY.mp3","response":2,"test_part":"test","phrase":"9b_demo_Arthur_wasnt_TIPSY","trial_type":"audio-button-response","trial_index":8,"time_elapsed":42100,"internal_node_id":"0.0-2.0-0.2"},{"rt":2259,"stimulus":"audio/9b_demo_Arthur_wasnt_TIPSY.mp3","response":0,"test_part":"test","phrase":"9b_demo_Arthur_wasnt_TIPSY","trial_type":"audio-button-response","trial_index":9,"time_elapsed":44361,"internal_node_id":"0.0-2.0-1.2-0.2"},{"rt":3288,"stimulus":"audio/5a_demo_the_food_didnt_taste_good.mp3","response":0,"test_part":"test","phrase":"5a_demo_the_food_didnt_taste_good","trial_type":"audio-button-response","trial_index":11,"time_elapsed":49080,"internal_node_id":"0.0-2.0-0.3"},{"rt":3781,"stimulus":"audio/2b_natural_Peter_wont_eat_ANYTHING.mp3","response":1,"test_part":"test","phrase":"2b_natural_Peter_wont_eat_ANYTHING","trial_type":"audio-button-response","trial_index":13,"time_elapsed":54308,"internal_node_id":"0.0-2.0-0.4"},{"rt":2731,"stimulus":"audio/Db_demo_Mary_doesnt_LIKE_ice_cream.mp3","response":0,"test_part":"test","phrase":"Db_demo_Mary_doesnt_LIKE_ice_cream","trial_type":"audio-button-response","trial_index":15,"time_elapsed":60175,"internal_node_id":"0.0-2.0-0.5"},{"rt":2968,"stimulus":"audio/9b_natural_Arthur_wasnt_TIPSY.mp3","response":0,"test_part":"test","phrase":"9b_natural_Arthur_wasnt_TIPSY","trial_type":"audio-button-response","trial_index":17,"time_elapsed":64408,"internal_node_id":"0.0-2.0-0.6"},{"rt":4101,"stimulus":"audio/4b_demo_Thomas_didnt_see_PATRICK.mp3","response":0,"test_part":"test","phrase":"4b_demo_Thomas_didnt_see_PATRICK","trial_type":"audio-button-response","trial_index":19,"time_elapsed":69867,"internal_node_id":"0.0-2.0-0.7"},{"rt":2888,"stimulus":"audio/1a_demo_the_inbox_wasnt_full.mp3","response":0,"test_part":"test","phrase":"1a_demo_the_inbox_wasnt_full","trial_type":"audio-button-response","trial_index":21,"time_elapsed":74323,"internal_node_id":"0.0-2.0-0.8"},{"rt":3499,"stimulus":"audio/Eb_demo_We_didnt_get_ONE_Christmas_card.mp3","response":0,"test_part":"test","phrase":"Eb_demo_We_didnt_get_ONE_Christmas_card","trial_type":"audio-button-response","trial_index":23,"time_elapsed":79049,"internal_node_id":"0.0-2.0-0.9"},{"rt":2229,"stimulus":"audio/4a_natural_Thomas_didnt_see_Patrick.mp3","response":0,"test_part":"test","phrase":"4a_natural_Thomas_didnt_see_Patrick","trial_type":"audio-button-response","trial_index":25,"time_elapsed":82627,"internal_node_id":"0.0-2.0-0.10"},{"rt":4419,"stimulus":"audio/Ea_natural_We_didnt_get_one_Christmas_card.mp3","response":1,"test_part":"test","phrase":"Ea_natural_We_didnt_get_one_Christmas_card","trial_type":"audio-button-response","trial_index":27,"time_elapsed":89137,"internal_node_id":"0.0-2.0-0.11"},{"rt":5941,"stimulus":"audio/2a_demo_Peter_wont_eat_anything.mp3","response":1,"test_part":"test","phrase":"2a_demo_Peter_wont_eat_anything","trial_type":"audio-button-response","trial_index":29,"time_elapsed":98029,"internal_node_id":"0.0-2.0-0.12"},{"rt":3392,"stimulus":"audio/Eb_natural_We_didnt_get_ONE_Christmas_card.mp3","response":1,"test_part":"test","phrase":"Eb_natural_We_didnt_get_ONE_Christmas_card","trial_type":"audio-button-response","trial_index":31,"time_elapsed":103836,"internal_node_id":"0.0-2.0-0.13"},{"rt":4560,"stimulus":"audio/3b_natural_Susan_didnt_get_ONE_credit.mp3","response":1,"test_part":"test","phrase":"3b_natural_Susan_didnt_get_ONE_credit","trial_type":"audio-button-response","trial_index":33,"time_elapsed":110115,"internal_node_id":"0.0-2.0-0.14"},{"rt":8240,"stimulus":"audio/Da_demo_Mary_doesnt_like_ice_cream.mp3","response":0,"test_part":"test","phrase":"Da_demo_Mary_doesnt_like_ice_cream","trial_type":"audio-button-response","trial_index":35,"time_elapsed":119663,"internal_node_id":"0.0-2.0-0.15"},{"rt":2851,"stimulus":"audio/1b_natural_the_inbox_wasnt_FULL.mp3","response":0,"test_part":"test","phrase":"1b_natural_the_inbox_wasnt_FULL","trial_type":"audio-button-response","trial_index":37,"time_elapsed":123994,"internal_node_id":"0.0-2.0-0.16"},{"rt":3659,"stimulus":"audio/9a_natural_Arthur_wasnt_tipsy.mp3","response":0,"test_part":"test","phrase":"9a_natural_Arthur_wasnt_tipsy","trial_type":"audio-button-response","trial_index":39,"time_elapsed":131176,"internal_node_id":"0.0-2.0-0.17"},{"rt":6419,"stimulus":"audio/Cb_natural_Nick_doesnt_listen_to_ANYONE.mp3","response":1,"test_part":"test","phrase":"Cb_natural_Nick_doesnt_listen_to_ANYONE","trial_type":"audio-button-response","trial_index":41,"time_elapsed":140014,"internal_node_id":"0.0-2.0-0.18"},{"rt":10171,"stimulus":"audio/4b_natural_Thomas_didnt_see_PATRICK.mp3","response":0,"test_part":"test","phrase":"4b_natural_Thomas_didnt_see_PATRICK","trial_type":"audio-button-response","trial_index":43,"time_elapsed":151578,"internal_node_id":"0.0-2.0-0.19"},{"rt":5888,"stimulus":"audio/Aa_demo_Ken_didnt_feed_the_cat.mp3","response":0,"test_part":"test","phrase":"Aa_demo_Ken_didnt_feed_the_cat","trial_type":"audio-button-response","trial_index":45,"time_elapsed":160204,"internal_node_id":"0.0-2.0-0.20"},{"rt":3880,"stimulus":"audio/Ca_natural_Nick_doesnt_listen_to_anyone.mp3","response":0,"test_part":"test","phrase":"Ca_natural_Nick_doesnt_listen_to_anyone","trial_type":"audio-button-response","trial_index":47,"time_elapsed":166760,"internal_node_id":"0.0-2.0-0.21"},{"rt":3069,"stimulus":"audio/Ab_natural_Ken_didnt_feed_the_CAT.mp3","response":1,"test_part":"test","phrase":"Ab_natural_Ken_didnt_feed_the_CAT","trial_type":"audio-button-response","trial_index":49,"time_elapsed":172740,"internal_node_id":"0.0-2.0-0.22"},{"rt":5451,"stimulus":"audio/Db_natural_Mary_doesnt_LIKE_ice_cream.mp3","response":0,"test_part":"test","phrase":"Db_natural_Mary_doesnt_LIKE_ice_cream","trial_type":"audio-button-response","trial_index":51,"time_elapsed":179811,"internal_node_id":"0.0-2.0-0.23"},{"rt":8400,"stimulus":"audio/5b_natural_the_food_didnt_taste_GOOD.mp3","response":1,"test_part":"test","phrase":"5b_natural_the_food_didnt_taste_GOOD","trial_type":"audio-button-response","trial_index":53,"time_elapsed":190179,"internal_node_id":"0.0-2.0-0.24"},{"rt":4440,"stimulus":"audio/4a_demo_Thomas_didnt_see_Patrick.mp3","response":1,"test_part":"test","phrase":"4a_demo_Thomas_didnt_see_Patrick","trial_type":"audio-button-response","trial_index":55,"time_elapsed":195968,"internal_node_id":"0.0-2.0-0.25"},{"rt":2229,"stimulus":"audio/1a_natural_the_inbox_wasnt_full.mp3","response":0,"test_part":"test","phrase":"1a_natural_the_inbox_wasnt_full","trial_type":"audio-button-response","trial_index":57,"time_elapsed":199800,"internal_node_id":"0.0-2.0-0.26"},{"rt":1811,"stimulus":"audio/9a_demo_Arthur_wasnt_tipsy.mp3","response":0,"test_part":"test","phrase":"9a_demo_Arthur_wasnt_tipsy","trial_type":"audio-button-response","trial_index":59,"time_elapsed":202867,"internal_node_id":"0.0-2.0-0.27"},{"rt":2589,"stimulus":"audio/Da_natural_Mary_doesnt_like_ice_cream.mp3","response":0,"test_part":"test","phrase":"Da_natural_Mary_doesnt_like_ice_cream","trial_type":"audio-button-response","trial_index":61,"time_elapsed":206138,"internal_node_id":"0.0-2.0-0.28"},{"rt":5771,"stimulus":"audio/5b_demo_the_food_didnt_taste_GOOD.mp3","response":0,"test_part":"test","phrase":"5b_demo_the_food_didnt_taste_GOOD","trial_type":"audio-button-response","trial_index":63,"time_elapsed":213217,"internal_node_id":"0.0-2.0-0.29"},{"rt":4219,"stimulus":"audio/3b_demo_Susan_didnt_get_ONE_credit.mp3","response":1,"test_part":"test","phrase":"3b_demo_Susan_didnt_get_ONE_credit","trial_type":"audio-button-response","trial_index":65,"time_elapsed":220012,"internal_node_id":"0.0-2.0-0.30"},{"rt":3499,"stimulus":"audio/Ca_demo_Nick_doesnt_listen_to_anyone.mp3","response":0,"test_part":"test","phrase":"Ca_demo_Nick_doesnt_listen_to_anyone","trial_type":"audio-button-response","trial_index":67,"time_elapsed":224575,"internal_node_id":"0.0-2.0-0.31"},{"rt":2539,"stimulus":"audio/3a_natural_Susan_didnt_get_one_credit.mp3","response":0,"test_part":"test","phrase":"3a_natural_Susan_didnt_get_one_credit","trial_type":"audio-button-response","trial_index":69,"time_elapsed":228324,"internal_node_id":"0.0-2.0-0.32"},{"rt":2749,"stimulus":"audio/Cb_demo_Nick_doesnt_listen_to_ANYONE.mp3","response":1,"test_part":"test","phrase":"Cb_demo_Nick_doesnt_listen_to_ANYONE","trial_type":"audio-button-response","trial_index":71,"time_elapsed":232091,"internal_node_id":"0.0-2.0-0.33"},{"rt":7549,"stimulus":"audio/3a_demo_Susan_didnt_get_one_credit.mp3","response":2,"test_part":"test","phrase":"3a_demo_Susan_didnt_get_one_credit","trial_type":"audio-button-response","trial_index":73,"time_elapsed":240654,"internal_node_id":"0.0-2.0-0.34"},{"rt":6541,"stimulus":"audio/3a_demo_Susan_didnt_get_one_credit.mp3","response":1,"test_part":"test","phrase":"3a_demo_Susan_didnt_get_one_credit","trial_type":"audio-button-response","trial_index":74,"time_elapsed":247190,"internal_node_id":"0.0-2.0-1.34-0.34"},{"rt":4339,"stimulus":"audio/Ab_demo_Ken_didnt_feed_the_CAT.mp3","response":1,"test_part":"test","phrase":"Ab_demo_Ken_didnt_feed_the_CAT","trial_type":"audio-button-response","trial_index":76,"time_elapsed":252685,"internal_node_id":"0.0-2.0-0.35"},{"rt":4019,"stimulus":"audio/2b_demo_Peter_wont_eat_ANYTHING.mp3","response":1,"test_part":"test","phrase":"2b_demo_Peter_wont_eat_ANYTHING","trial_type":"audio-button-response","trial_index":78,"time_elapsed":257531,"internal_node_id":"0.0-2.0-0.36"},{"rt":3000,"stimulus":"audio/Aa_natural_Ken_didnt_feed_the_cat.mp3","response":0,"test_part":"test","phrase":"Aa_natural_Ken_didnt_feed_the_cat","trial_type":"audio-button-response","trial_index":80,"time_elapsed":261637,"internal_node_id":"0.0-2.0-0.37"},{"rt":2912,"stimulus":"audio/5a_natural_the_food_didnt_taste_good.mp3","response":0,"test_part":"test","phrase":"5a_natural_the_food_didnt_taste_good","trial_type":"audio-button-response","trial_index":82,"time_elapsed":265634,"internal_node_id":"0.0-2.0-0.38"},{"rt":4272,"stimulus":"audio/Ea_demo_We_didnt_get_one_Christmas_card.mp3","response":0,"test_part":"test","phrase":"Ea_demo_We_didnt_get_one_Christmas_card","trial_type":"audio-button-response","trial_index":84,"time_elapsed":270870,"internal_node_id":"0.0-2.0-0.39"}]