[{"rt":3529,"stimulus":"audio/9a_demo_Arthur_wasnt_tipsy.mp3","response":2,"test_part":"test","phrase":"9a_demo_Arthur_wasnt_tipsy","trial_type":"audio-button-response","trial_index":2,"time_elapsed":7430,"internal_node_id":"0.0-2.0-0.0"},{"rt":5068,"stimulus":"audio/9a_demo_Arthur_wasnt_tipsy.mp3","response":1,"test_part":"test","phrase":"9a_demo_Arthur_wasnt_tipsy","trial_type":"audio-button-response","trial_index":3,"time_elapsed":12501,"internal_node_id":"0.0-2.0-1.0-0.0"},{"rt":4394,"stimulus":"audio/Eb_natural_We_didnt_get_ONE_Christmas_card.mp3","response":2,"test_part":"test","phrase":"Eb_natural_We_didnt_get_ONE_Christmas_card","trial_type":"audio-button-response","trial_index":5,"time_elapsed":18695,"internal_node_id":"0.0-2.0-0.1"},{"rt":3344,"stimulus":"audio/Eb_natural_We_didnt_get_ONE_Christmas_card.mp3","response":1,"test_part":"test","phrase":"Eb_natural_We_didnt_get_ONE_Christmas_card","trial_type":"audio-button-response","trial_index":6,"time_elapsed":22041,"internal_node_id":"0.0-2.0-1.1-0.1"},{"rt":4969,"stimulus":"audio/4b_natural_Thomas_didnt_see_PATRICK.mp3","response":2,"test_part":"test","phrase":"4b_natural_Thomas_didnt_see_PATRICK","trial_type":"audio-button-response","trial_index":8,"time_elapsed":28553,"internal_node_id":"0.0-2.0-0.2"},{"rt":4011,"stimulus":"audio/4b_natural_Thomas_didnt_see_PATRICK.mp3","response":0,"test_part":"test","phrase":"4b_natural_Thomas_didnt_see_PATRICK","trial_type":"audio-button-response","trial_index":9,"time_elapsed":32568,"internal_node_id":"0.0-2.0-1.2-0.2"},{"rt":3309,"stimulus":"audio/Da_natural_Mary_doesnt_like_ice_cream.mp3","response":0,"test_part":"test","phrase":"Da_natural_Mary_doesnt_like_ice_cream","trial_type":"audio-button-response","trial_index":11,"time_elapsed":37620,"internal_node_id":"0.0-2.0-0.3"},{"rt":6415,"stimulus":"audio/4a_demo_Thomas_didnt_see_Patrick.mp3","response":1,"test_part":"test","phrase":"4a_demo_Thomas_didnt_see_Patrick","trial_type":"audio-button-response","trial_index":13,"time_elapsed":45438,"internal_node_id":"0.0-2.0-0.4"},{"rt":3680,"stimulus":"audio/Db_natural_Mary_doesnt_LIKE_ice_cream.mp3","response":0,"test_part":"test","phrase":"Db_natural_Mary_doesnt_LIKE_ice_cream","trial_type":"audio-button-response","trial_index":15,"time_elapsed":50391,"internal_node_id":"0.0-2.0-0.5"},{"rt":2995,"stimulus":"audio/5a_natural_the_food_didnt_taste_good.mp3","response":1,"test_part":"test","phrase":"5a_natural_the_food_didnt_taste_good","trial_type":"audio-button-response","trial_index":17,"time_elapsed":55393,"internal_node_id":"0.0-2.0-0.6"},{"rt":3355,"stimulus":"audio/2b_demo_Peter_wont_eat_ANYTHING.mp3","response":0,"test_part":"test","phrase":"2b_demo_Peter_wont_eat_ANYTHING","trial_type":"audio-button-response","trial_index":19,"time_elapsed":60470,"internal_node_id":"0.0-2.0-0.7"},{"rt":4551,"stimulus":"audio/5b_demo_the_food_didnt_taste_GOOD.mp3","response":1,"test_part":"test","phrase":"5b_demo_the_food_didnt_taste_GOOD","trial_type":"audio-button-response","trial_index":21,"time_elapsed":66517,"internal_node_id":"0.0-2.0-0.8"},{"rt":3733,"stimulus":"audio/3a_demo_Susan_didnt_get_one_credit.mp3","response":1,"test_part":"test","phrase":"3a_demo_Susan_didnt_get_one_credit","trial_type":"audio-button-response","trial_index":23,"time_elapsed":72201,"internal_node_id":"0.0-2.0-0.9"},{"rt":3332,"stimulus":"audio/1b_demo_the_inbox_wasnt_FULL.mp3","response":1,"test_part":"test","phrase":"1b_demo_the_inbox_wasnt_FULL","trial_type":"audio-button-response","trial_index":25,"time_elapsed":76787,"internal_node_id":"0.0-2.0-0.10"},{"rt":3274,"stimulus":"audio/Ab_natural_Ken_didnt_feed_the_CAT.mp3","response":0,"test_part":"test","phrase":"Ab_natural_Ken_didnt_feed_the_CAT","trial_type":"audio-button-response","trial_index":27,"time_elapsed":81382,"internal_node_id":"0.0-2.0-0.11"},{"rt":7343,"stimulus":"audio/Cb_natural_Nick_doesnt_listen_to_ANYONE.mp3","response":0,"test_part":"test","phrase":"Cb_natural_Nick_doesnt_listen_to_ANYONE","trial_type":"audio-button-response","trial_index":29,"time_elapsed":90271,"internal_node_id":"0.0-2.0-0.12"},{"rt":2345,"stimulus":"audio/4a_natural_Thomas_didnt_see_Patrick.mp3","response":0,"test_part":"test","phrase":"4a_natural_Thomas_didnt_see_Patrick","trial_type":"audio-button-response","trial_index":31,"time_elapsed":94027,"internal_node_id":"0.0-2.0-0.13"},{"rt":3088,"stimulus":"audio/3a_natural_Susan_didnt_get_one_credit.mp3","response":1,"test_part":"test","phrase":"3a_natural_Susan_didnt_get_one_credit","trial_type":"audio-button-response","trial_index":33,"time_elapsed":98758,"internal_node_id":"0.0-2.0-0.14"},{"rt":3512,"stimulus":"audio/5a_demo_the_food_didnt_taste_good.mp3","response":1,"test_part":"test","phrase":"5a_demo_the_food_didnt_taste_good","trial_type":"audio-button-response","trial_index":35,"time_elapsed":103712,"internal_node_id":"0.0-2.0-0.15"},{"rt":1759,"stimulus":"audio/4b_demo_Thomas_didnt_see_PATRICK.mp3","response":1,"test_part":"test","phrase":"4b_demo_Thomas_didnt_see_PATRICK","trial_type":"audio-button-response","trial_index":37,"time_elapsed":107703,"internal_node_id":"0.0-2.0-0.16"},{"rt":2229,"stimulus":"audio/Db_demo_Mary_doesnt_LIKE_ice_cream.mp3","response":0,"test_part":"test","phrase":"Db_demo_Mary_doesnt_LIKE_ice_cream","trial_type":"audio-button-response","trial_index":39,"time_elapsed":111258,"internal_node_id":"0.0-2.0-0.17"},{"rt":2902,"stimulus":"audio/9a_natural_Arthur_wasnt_tipsy.mp3","response":0,"test_part":"test","phrase":"9a_natural_Arthur_wasnt_tipsy","trial_type":"audio-button-response","trial_index":41,"time_elapsed":116444,"internal_node_id":"0.0-2.0-0.18"},{"rt":2827,"stimulus":"audio/2a_natural_Peter_wont_eat_anything.mp3","response":0,"test_part":"test","phrase":"2a_natural_Peter_wont_eat_anything","trial_type":"audio-button-response","trial_index":43,"time_elapsed":120698,"internal_node_id":"0.0-2.0-0.19"},{"rt":4023,"stimulus":"audio/9b_natural_Arthur_wasnt_TIPSY.mp3","response":0,"test_part":"test","phrase":"9b_natural_Arthur_wasnt_TIPSY","trial_type":"audio-button-response","trial_index":45,"time_elapsed":125915,"internal_node_id":"0.0-2.0-0.20"},{"rt":4005,"stimulus":"audio/Ab_demo_Ken_didnt_feed_the_CAT.mp3","response":1,"test_part":"test","phrase":"Ab_demo_Ken_didnt_feed_the_CAT","trial_type":"audio-button-response","trial_index":47,"time_elapsed":130771,"internal_node_id":"0.0-2.0-0.21"},{"rt":3413,"stimulus":"audio/Ca_demo_Nick_doesnt_listen_to_anyone.mp3","response":1,"test_part":"test","phrase":"Ca_demo_Nick_doesnt_listen_to_anyone","trial_type":"audio-button-response","trial_index":49,"time_elapsed":135684,"internal_node_id":"0.0-2.0-0.22"},{"rt":1149,"stimulus":"audio/Aa_demo_Ken_didnt_feed_the_cat.mp3","response":1,"test_part":"test","phrase":"Aa_demo_Ken_didnt_feed_the_cat","trial_type":"audio-button-response","trial_index":51,"time_elapsed":137786,"internal_node_id":"0.0-2.0-0.23"},{"rt":3570,"stimulus":"audio/2b_natural_Peter_wont_eat_ANYTHING.mp3","response":0,"test_part":"test","phrase":"2b_natural_Peter_wont_eat_ANYTHING","trial_type":"audio-button-response","trial_index":53,"time_elapsed":141984,"internal_node_id":"0.0-2.0-0.24"},{"rt":1724,"stimulus":"audio/3b_natural_Susan_didnt_get_ONE_credit.mp3","response":0,"test_part":"test","phrase":"3b_natural_Susan_didnt_get_ONE_credit","trial_type":"audio-button-response","trial_index":55,"time_elapsed":144806,"internal_node_id":"0.0-2.0-0.25"},{"rt":1939,"stimulus":"audio/1a_natural_the_inbox_wasnt_full.mp3","response":0,"test_part":"test","phrase":"1a_natural_the_inbox_wasnt_full","trial_type":"audio-button-response","trial_index":57,"time_elapsed":147588,"internal_node_id":"0.0-2.0-0.26"},{"rt":3158,"stimulus":"audio/Ea_natural_We_didnt_get_one_Christmas_card.mp3","response":0,"test_part":"test","phrase":"Ea_natural_We_didnt_get_one_Christmas_card","trial_type":"audio-button-response","trial_index":59,"time_elapsed":151696,"internal_node_id":"0.0-2.0-0.27"},{"rt":1057,"stimulus":"audio/5b_natural_the_food_didnt_taste_GOOD.mp3","response":0,"test_part":"test","phrase":"5b_natural_the_food_didnt_taste_GOOD","trial_type":"audio-button-response","trial_index":61,"time_elapsed":154119,"internal_node_id":"0.0-2.0-0.28"},{"rt":1155,"stimulus":"audio/Da_demo_Mary_doesnt_like_ice_cream.mp3","response":0,"test_part":"test","phrase":"Da_demo_Mary_doesnt_like_ice_cream","trial_type":"audio-button-response","trial_index":63,"time_elapsed":156911,"internal_node_id":"0.0-2.0-0.29"},{"rt":2020,"stimulus":"audio/Ea_demo_We_didnt_get_one_Christmas_card.mp3","response":0,"test_part":"test","phrase":"Ea_demo_We_didnt_get_one_Christmas_card","trial_type":"audio-button-response","trial_index":65,"time_elapsed":160042,"internal_node_id":"0.0-2.0-0.30"},{"rt":1126,"stimulus":"audio/1a_demo_the_inbox_wasnt_full.mp3","response":0,"test_part":"test","phrase":"1a_demo_the_inbox_wasnt_full","trial_type":"audio-button-response","trial_index":67,"time_elapsed":162206,"internal_node_id":"0.0-2.0-0.31"},{"rt":760,"stimulus":"audio/9b_demo_Arthur_wasnt_TIPSY.mp3","response":0,"test_part":"test","phrase":"9b_demo_Arthur_wasnt_TIPSY","trial_type":"audio-button-response","trial_index":69,"time_elapsed":164048,"internal_node_id":"0.0-2.0-0.32"},{"rt":1921,"stimulus":"audio/Ca_natural_Nick_doesnt_listen_to_anyone.mp3","response":0,"test_part":"test","phrase":"Ca_natural_Nick_doesnt_listen_to_anyone","trial_type":"audio-button-response","trial_index":71,"time_elapsed":167283,"internal_node_id":"0.0-2.0-0.33"},{"rt":882,"stimulus":"audio/3b_demo_Susan_didnt_get_ONE_credit.mp3","response":0,"test_part":"test","phrase":"3b_demo_Susan_didnt_get_ONE_credit","trial_type":"audio-button-response","trial_index":73,"time_elapsed":168891,"internal_node_id":"0.0-2.0-0.34"},{"rt":720,"stimulus":"audio/Cb_demo_Nick_doesnt_listen_to_ANYONE.mp3","response":0,"test_part":"test","phrase":"Cb_demo_Nick_doesnt_listen_to_ANYONE","trial_type":"audio-button-response","trial_index":75,"time_elapsed":170673,"internal_node_id":"0.0-2.0-0.35"},{"rt":430,"stimulus":"audio/Eb_demo_We_didnt_get_ONE_Christmas_card.mp3","response":0,"test_part":"test","phrase":"Eb_demo_We_didnt_get_ONE_Christmas_card","trial_type":"audio-button-response","trial_index":77,"time_elapsed":172130,"internal_node_id":"0.0-2.0-0.36"},{"rt":685,"stimulus":"audio/1b_natural_the_inbox_wasnt_FULL.mp3","response":0,"test_part":"test","phrase":"1b_natural_the_inbox_wasnt_FULL","trial_type":"audio-button-response","trial_index":79,"time_elapsed":173824,"internal_node_id":"0.0-2.0-0.37"},{"rt":749,"stimulus":"audio/2a_demo_Peter_wont_eat_anything.mp3","response":0,"test_part":"test","phrase":"2a_demo_Peter_wont_eat_anything","trial_type":"audio-button-response","trial_index":81,"time_elapsed":175482,"internal_node_id":"0.0-2.0-0.38"},{"rt":778,"stimulus":"audio/Aa_natural_Ken_didnt_feed_the_cat.mp3","response":0,"test_part":"test","phrase":"Aa_natural_Ken_didnt_feed_the_cat","trial_type":"audio-button-response","trial_index":83,"time_elapsed":177587,"internal_node_id":"0.0-2.0-0.39"}]