[{"rt":7149,"stimulus":"audio/2a_natural_Peter_wont_eat_anything.mp3","response":2,"test_part":"test","phrase":"2a_natural_Peter_wont_eat_anything","trial_type":"audio-button-response","trial_index":2,"time_elapsed":14608,"internal_node_id":"0.0-2.0-0.0"},{"rt":3190,"stimulus":"audio/2a_natural_Peter_wont_eat_anything.mp3","response":1,"test_part":"test","phrase":"2a_natural_Peter_wont_eat_anything","trial_type":"audio-button-response","trial_index":3,"time_elapsed":17799,"internal_node_id":"0.0-2.0-1.0-0.0"},{"rt":5149,"stimulus":"audio/4a_demo_Thomas_didnt_see_Patrick.mp3","response":0,"test_part":"test","phrase":"4a_demo_Thomas_didnt_see_Patrick","trial_type":"audio-button-response","trial_index":5,"time_elapsed":25698,"internal_node_id":"0.0-2.0-0.1"},{"rt":6531,"stimulus":"audio/9b_demo_Arthur_wasnt_TIPSY.mp3","response":0,"test_part":"test","phrase":"9b_demo_Arthur_wasnt_TIPSY","trial_type":"audio-button-response","trial_index":7,"time_elapsed":35323,"internal_node_id":"0.0-2.0-0.2"},{"rt":4400,"stimulus":"audio/Ca_natural_Nick_doesnt_listen_to_anyone.mp3","response":1,"test_part":"test","phrase":"Ca_natural_Nick_doesnt_listen_to_anyone","trial_type":"audio-button-response","trial_index":9,"time_elapsed":44357,"internal_node_id":"0.0-2.0-0.3"},{"rt":2940,"stimulus":"audio/Db_natural_Mary_doesnt_LIKE_ice_cream.mp3","response":0,"test_part":"test","phrase":"Db_natural_Mary_doesnt_LIKE_ice_cream","trial_type":"audio-button-response","trial_index":11,"time_elapsed":49348,"internal_node_id":"0.0-2.0-0.4"},{"rt":3422,"stimulus":"audio/Aa_demo_Ken_didnt_feed_the_cat.mp3","response":0,"test_part":"test","phrase":"Aa_demo_Ken_didnt_feed_the_cat","trial_type":"audio-button-response","trial_index":13,"time_elapsed":56605,"internal_node_id":"0.0-2.0-0.5"},{"rt":2720,"stimulus":"audio/Db_demo_Mary_doesnt_LIKE_ice_cream.mp3","response":0,"test_part":"test","phrase":"Db_demo_Mary_doesnt_LIKE_ice_cream","trial_type":"audio-button-response","trial_index":15,"time_elapsed":60269,"internal_node_id":"0.0-2.0-0.6"},{"rt":3518,"stimulus":"audio/1a_demo_the_inbox_wasnt_full.mp3","response":1,"test_part":"test","phrase":"1a_demo_the_inbox_wasnt_full","trial_type":"audio-button-response","trial_index":17,"time_elapsed":64949,"internal_node_id":"0.0-2.0-0.7"},{"rt":4400,"stimulus":"audio/Eb_natural_We_didnt_get_ONE_Christmas_card.mp3","response":2,"test_part":"test","phrase":"Eb_natural_We_didnt_get_ONE_Christmas_card","trial_type":"audio-button-response","trial_index":19,"time_elapsed":71031,"internal_node_id":"0.0-2.0-0.8"},{"rt":2421,"stimulus":"audio/Eb_natural_We_didnt_get_ONE_Christmas_card.mp3","response":0,"test_part":"test","phrase":"Eb_natural_We_didnt_get_ONE_Christmas_card","trial_type":"audio-button-response","trial_index":20,"time_elapsed":73456,"internal_node_id":"0.0-2.0-1.8-0.8"},{"rt":3190,"stimulus":"audio/1b_natural_the_inbox_wasnt_FULL.mp3","response":0,"test_part":"test","phrase":"1b_natural_the_inbox_wasnt_FULL","trial_type":"audio-button-response","trial_index":22,"time_elapsed":78108,"internal_node_id":"0.0-2.0-0.9"},{"rt":2752,"stimulus":"audio/5a_demo_the_food_didnt_taste_good.mp3","response":0,"test_part":"test","phrase":"5a_demo_the_food_didnt_taste_good","trial_type":"audio-button-response","trial_index":24,"time_elapsed":82977,"internal_node_id":"0.0-2.0-0.10"},{"rt":4180,"stimulus":"audio/1b_demo_the_inbox_wasnt_FULL.mp3","response":0,"test_part":"test","phrase":"1b_demo_the_inbox_wasnt_FULL","trial_type":"audio-button-response","trial_index":26,"time_elapsed":88359,"internal_node_id":"0.0-2.0-0.11"},{"rt":2609,"stimulus":"audio/5a_natural_the_food_didnt_taste_good.mp3","response":0,"test_part":"test","phrase":"5a_natural_the_food_didnt_taste_good","trial_type":"audio-button-response","trial_index":28,"time_elapsed":92125,"internal_node_id":"0.0-2.0-0.12"},{"rt":3492,"stimulus":"audio/3b_demo_Susan_didnt_get_ONE_credit.mp3","response":0,"test_part":"test","phrase":"3b_demo_Susan_didnt_get_ONE_credit","trial_type":"audio-button-response","trial_index":30,"time_elapsed":96872,"internal_node_id":"0.0-2.0-0.13"},{"rt":4920,"stimulus":"audio/Ca_demo_Nick_doesnt_listen_to_anyone.mp3","response":1,"test_part":"test","phrase":"Ca_demo_Nick_doesnt_listen_to_anyone","trial_type":"audio-button-response","trial_index":32,"time_elapsed":102840,"internal_node_id":"0.0-2.0-0.14"},{"rt":2900,"stimulus":"audio/2a_demo_Peter_wont_eat_anything.mp3","response":1,"test_part":"test","phrase":"2a_demo_Peter_wont_eat_anything","trial_type":"audio-button-response","trial_index":34,"time_elapsed":106786,"internal_node_id":"0.0-2.0-0.15"},{"rt":2810,"stimulus":"audio/Eb_demo_We_didnt_get_ONE_Christmas_card.mp3","response":0,"test_part":"test","phrase":"Eb_demo_We_didnt_get_ONE_Christmas_card","trial_type":"audio-button-response","trial_index":36,"time_elapsed":110965,"internal_node_id":"0.0-2.0-0.16"},{"rt":2061,"stimulus":"audio/2b_natural_Peter_wont_eat_ANYTHING.mp3","response":1,"test_part":"test","phrase":"2b_natural_Peter_wont_eat_ANYTHING","trial_type":"audio-button-response","trial_index":38,"time_elapsed":114455,"internal_node_id":"0.0-2.0-0.17"},{"rt":2810,"stimulus":"audio/4b_natural_Thomas_didnt_see_PATRICK.mp3","response":0,"test_part":"test","phrase":"4b_natural_Thomas_didnt_see_PATRICK","trial_type":"audio-button-response","trial_index":40,"time_elapsed":118566,"internal_node_id":"0.0-2.0-0.18"},{"rt":3199,"stimulus":"audio/Cb_demo_Nick_doesnt_listen_to_ANYONE.mp3","response":1,"test_part":"test","phrase":"Cb_demo_Nick_doesnt_listen_to_ANYONE","trial_type":"audio-button-response","trial_index":42,"time_elapsed":123153,"internal_node_id":"0.0-2.0-0.19"},{"rt":2621,"stimulus":"audio/Ab_natural_Ken_didnt_feed_the_CAT.mp3","response":0,"test_part":"test","phrase":"Ab_natural_Ken_didnt_feed_the_CAT","trial_type":"audio-button-response","trial_index":44,"time_elapsed":126691,"internal_node_id":"0.0-2.0-0.20"},{"rt":2490,"stimulus":"audio/Cb_natural_Nick_doesnt_listen_to_ANYONE.mp3","response":1,"test_part":"test","phrase":"Cb_natural_Nick_doesnt_listen_to_ANYONE","trial_type":"audio-button-response","trial_index":46,"time_elapsed":130279,"internal_node_id":"0.0-2.0-0.21"},{"rt":4499,"stimulus":"audio/Da_natural_Mary_doesnt_like_ice_cream.mp3","response":0,"test_part":"test","phrase":"Da_natural_Mary_doesnt_like_ice_cream","trial_type":"audio-button-response","trial_index":48,"time_elapsed":135723,"internal_node_id":"0.0-2.0-0.22"},{"rt":2339,"stimulus":"audio/4a_natural_Thomas_didnt_see_Patrick.mp3","response":0,"test_part":"test","phrase":"4a_natural_Thomas_didnt_see_Patrick","trial_type":"audio-button-response","trial_index":50,"time_elapsed":139098,"internal_node_id":"0.0-2.0-0.23"},{"rt":2130,"stimulus":"audio/2b_demo_Peter_wont_eat_ANYTHING.mp3","response":1,"test_part":"test","phrase":"2b_demo_Peter_wont_eat_ANYTHING","trial_type":"audio-button-response","trial_index":52,"time_elapsed":142532,"internal_node_id":"0.0-2.0-0.24"},{"rt":2400,"stimulus":"audio/Da_demo_Mary_doesnt_like_ice_cream.mp3","response":0,"test_part":"test","phrase":"Da_demo_Mary_doesnt_like_ice_cream","trial_type":"audio-button-response","trial_index":54,"time_elapsed":145969,"internal_node_id":"0.0-2.0-0.25"},{"rt":3680,"stimulus":"audio/9b_natural_Arthur_wasnt_TIPSY.mp3","response":1,"test_part":"test","phrase":"9b_natural_Arthur_wasnt_TIPSY","trial_type":"audio-button-response","trial_index":56,"time_elapsed":150730,"internal_node_id":"0.0-2.0-0.26"},{"rt":3100,"stimulus":"audio/1a_natural_the_inbox_wasnt_full.mp3","response":2,"test_part":"test","phrase":"1a_natural_the_inbox_wasnt_full","trial_type":"audio-button-response","trial_index":58,"time_elapsed":154794,"internal_node_id":"0.0-2.0-0.27"},{"rt":2159,"stimulus":"audio/1a_natural_the_inbox_wasnt_full.mp3","response":0,"test_part":"test","phrase":"1a_natural_the_inbox_wasnt_full","trial_type":"audio-button-response","trial_index":59,"time_elapsed":156958,"internal_node_id":"0.0-2.0-1.27-0.27"},{"rt":3419,"stimulus":"audio/9a_natural_Arthur_wasnt_tipsy.mp3","response":1,"test_part":"test","phrase":"9a_natural_Arthur_wasnt_tipsy","trial_type":"audio-button-response","trial_index":61,"time_elapsed":161621,"internal_node_id":"0.0-2.0-0.28"},{"rt":3210,"stimulus":"audio/Ab_demo_Ken_didnt_feed_the_CAT.mp3","response":1,"test_part":"test","phrase":"Ab_demo_Ken_didnt_feed_the_CAT","trial_type":"audio-button-response","trial_index":63,"time_elapsed":166278,"internal_node_id":"0.0-2.0-0.29"},{"rt":4249,"stimulus":"audio/3a_natural_Susan_didnt_get_one_credit.mp3","response":2,"test_part":"test","phrase":"3a_natural_Susan_didnt_get_one_credit","trial_type":"audio-button-response","trial_index":65,"time_elapsed":171652,"internal_node_id":"0.0-2.0-0.30"},{"rt":2940,"stimulus":"audio/3a_natural_Susan_didnt_get_one_credit.mp3","response":1,"test_part":"test","phrase":"3a_natural_Susan_didnt_get_one_credit","trial_type":"audio-button-response","trial_index":66,"time_elapsed":174595,"internal_node_id":"0.0-2.0-1.30-0.30"},{"rt":3419,"stimulus":"audio/5b_natural_the_food_didnt_taste_GOOD.mp3","response":0,"test_part":"test","phrase":"5b_natural_the_food_didnt_taste_GOOD","trial_type":"audio-button-response","trial_index":68,"time_elapsed":179316,"internal_node_id":"0.0-2.0-0.31"},{"rt":3091,"stimulus":"audio/Aa_natural_Ken_didnt_feed_the_cat.mp3","response":0,"test_part":"test","phrase":"Aa_natural_Ken_didnt_feed_the_cat","trial_type":"audio-button-response","trial_index":70,"time_elapsed":183501,"internal_node_id":"0.0-2.0-0.32"},{"rt":3320,"stimulus":"audio/5b_demo_the_food_didnt_taste_GOOD.mp3","response":0,"test_part":"test","phrase":"5b_demo_the_food_didnt_taste_GOOD","trial_type":"audio-button-response","trial_index":72,"time_elapsed":188006,"internal_node_id":"0.0-2.0-0.33"},{"rt":3640,"stimulus":"audio/3b_natural_Susan_didnt_get_ONE_credit.mp3","response":2,"test_part":"test","phrase":"3b_natural_Susan_didnt_get_ONE_credit","trial_type":"audio-button-response","trial_index":74,"time_elapsed":192893,"internal_node_id":"0.0-2.0-0.34"},{"rt":2691,"stimulus":"audio/3b_natural_Susan_didnt_get_ONE_credit.mp3","response":0,"test_part":"test","phrase":"3b_natural_Susan_didnt_get_ONE_credit","trial_type":"audio-button-response","trial_index":75,"time_elapsed":195586,"internal_node_id":"0.0-2.0-1.34-0.34"},{"rt":5738,"stimulus":"audio/9a_demo_Arthur_wasnt_tipsy.mp3","response":0,"test_part":"test","phrase":"9a_demo_Arthur_wasnt_tipsy","trial_type":"audio-button-response","trial_index":77,"time_elapsed":202629,"internal_node_id":"0.0-2.0-0.35"},{"rt":3489,"stimulus":"audio/3a_demo_Susan_didnt_get_one_credit.mp3","response":2,"test_part":"test","phrase":"3a_demo_Susan_didnt_get_one_credit","trial_type":"audio-button-response","trial_index":79,"time_elapsed":207542,"internal_node_id":"0.0-2.0-0.36"},{"rt":6359,"stimulus":"audio/3a_demo_Susan_didnt_get_one_credit.mp3","response":1,"test_part":"test","phrase":"3a_demo_Susan_didnt_get_one_credit","trial_type":"audio-button-response","trial_index":80,"time_elapsed":213900,"internal_node_id":"0.0-2.0-1.36-0.36"},{"rt":1991,"stimulus":"audio/Ea_natural_We_didnt_get_one_Christmas_card.mp3","response":0,"test_part":"test","phrase":"Ea_natural_We_didnt_get_one_Christmas_card","trial_type":"audio-button-response","trial_index":82,"time_elapsed":217255,"internal_node_id":"0.0-2.0-0.37"},{"rt":3770,"stimulus":"audio/4b_demo_Thomas_didnt_see_PATRICK.mp3","response":0,"test_part":"test","phrase":"4b_demo_Thomas_didnt_see_PATRICK","trial_type":"audio-button-response","trial_index":84,"time_elapsed":222097,"internal_node_id":"0.0-2.0-0.38"},{"rt":2061,"stimulus":"audio/Ea_demo_We_didnt_get_one_Christmas_card.mp3","response":0,"test_part":"test","phrase":"Ea_demo_We_didnt_get_one_Christmas_card","trial_type":"audio-button-response","trial_index":86,"time_elapsed":225271,"internal_node_id":"0.0-2.0-0.39"}]