[{"rt":8709,"stimulus":"audio/9a_demo_Arthur_wasnt_tipsy.mp3","response":2,"test_part":"test","phrase":"9a_demo_Arthur_wasnt_tipsy","trial_type":"audio-button-response","trial_index":2,"time_elapsed":15425,"internal_node_id":"0.0-2.0-0.0"},{"rt":11741,"stimulus":"audio/9a_demo_Arthur_wasnt_tipsy.mp3","response":0,"test_part":"test","phrase":"9a_demo_Arthur_wasnt_tipsy","trial_type":"audio-button-response","trial_index":3,"time_elapsed":27173,"internal_node_id":"0.0-2.0-1.0-0.0"},{"rt":6939,"stimulus":"audio/Cb_natural_Nick_doesnt_listen_to_ANYONE.mp3","response":0,"test_part":"test","phrase":"Cb_natural_Nick_doesnt_listen_to_ANYONE","trial_type":"audio-button-response","trial_index":5,"time_elapsed":36455,"internal_node_id":"0.0-2.0-0.1"},{"rt":7499,"stimulus":"audio/Ea_demo_We_didnt_get_one_Christmas_card.mp3","response":0,"test_part":"test","phrase":"Ea_demo_We_didnt_get_one_Christmas_card","trial_type":"audio-button-response","trial_index":7,"time_elapsed":48415,"internal_node_id":"0.0-2.0-0.2"},{"rt":5229,"stimulus":"audio/Ca_demo_Nick_doesnt_listen_to_anyone.mp3","response":2,"test_part":"test","phrase":"Ca_demo_Nick_doesnt_listen_to_anyone","trial_type":"audio-button-response","trial_index":9,"time_elapsed":57424,"internal_node_id":"0.0-2.0-0.3"},{"rt":4891,"stimulus":"audio/Ca_demo_Nick_doesnt_listen_to_anyone.mp3","response":0,"test_part":"test","phrase":"Ca_demo_Nick_doesnt_listen_to_anyone","trial_type":"audio-button-response","trial_index":10,"time_elapsed":62324,"internal_node_id":"0.0-2.0-1.3-0.3"},{"rt":6549,"stimulus":"audio/Eb_demo_We_didnt_get_ONE_Christmas_card.mp3","response":0,"test_part":"test","phrase":"Eb_demo_We_didnt_get_ONE_Christmas_card","trial_type":"audio-button-response","trial_index":12,"time_elapsed":70695,"internal_node_id":"0.0-2.0-0.4"},{"rt":5851,"stimulus":"audio/Da_demo_Mary_doesnt_like_ice_cream.mp3","response":0,"test_part":"test","phrase":"Da_demo_Mary_doesnt_like_ice_cream","trial_type":"audio-button-response","trial_index":14,"time_elapsed":80204,"internal_node_id":"0.0-2.0-0.5"},{"rt":8840,"stimulus":"audio/1b_natural_the_inbox_wasnt_FULL.mp3","response":0,"test_part":"test","phrase":"1b_natural_the_inbox_wasnt_FULL","trial_type":"audio-button-response","trial_index":16,"time_elapsed":90875,"internal_node_id":"0.0-2.0-0.6"},{"rt":4880,"stimulus":"audio/Aa_natural_Ken_didnt_feed_the_cat.mp3","response":2,"test_part":"test","phrase":"Aa_natural_Ken_didnt_feed_the_cat","trial_type":"audio-button-response","trial_index":18,"time_elapsed":97706,"internal_node_id":"0.0-2.0-0.7"},{"rt":13331,"stimulus":"audio/Aa_natural_Ken_didnt_feed_the_cat.mp3","response":1,"test_part":"test","phrase":"Aa_natural_Ken_didnt_feed_the_cat","trial_type":"audio-button-response","trial_index":19,"time_elapsed":111035,"internal_node_id":"0.0-2.0-1.7-0.7"},{"rt":6320,"stimulus":"audio/2a_natural_Peter_wont_eat_anything.mp3","response":2,"test_part":"test","phrase":"2a_natural_Peter_wont_eat_anything","trial_type":"audio-button-response","trial_index":21,"time_elapsed":119025,"internal_node_id":"0.0-2.0-0.8"},{"rt":4640,"stimulus":"audio/2a_natural_Peter_wont_eat_anything.mp3","response":1,"test_part":"test","phrase":"2a_natural_Peter_wont_eat_anything","trial_type":"audio-button-response","trial_index":22,"time_elapsed":123670,"internal_node_id":"0.0-2.0-1.8-0.8"},{"rt":5539,"stimulus":"audio/Ab_demo_Ken_didnt_feed_the_CAT.mp3","response":1,"test_part":"test","phrase":"Ab_demo_Ken_didnt_feed_the_CAT","trial_type":"audio-button-response","trial_index":24,"time_elapsed":130899,"internal_node_id":"0.0-2.0-0.9"},{"rt":4709,"stimulus":"audio/Ca_natural_Nick_doesnt_listen_to_anyone.mp3","response":2,"test_part":"test","phrase":"Ca_natural_Nick_doesnt_listen_to_anyone","trial_type":"audio-button-response","trial_index":26,"time_elapsed":137592,"internal_node_id":"0.0-2.0-0.10"},{"rt":4421,"stimulus":"audio/Ca_natural_Nick_doesnt_listen_to_anyone.mp3","response":0,"test_part":"test","phrase":"Ca_natural_Nick_doesnt_listen_to_anyone","trial_type":"audio-button-response","trial_index":27,"time_elapsed":142006,"internal_node_id":"0.0-2.0-1.10-0.10"},{"rt":6549,"stimulus":"audio/1a_demo_the_inbox_wasnt_full.mp3","response":0,"test_part":"test","phrase":"1a_demo_the_inbox_wasnt_full","trial_type":"audio-button-response","trial_index":29,"time_elapsed":150596,"internal_node_id":"0.0-2.0-0.11"},{"rt":10000,"stimulus":"audio/4a_demo_Thomas_didnt_see_Patrick.mp3","response":0,"test_part":"test","phrase":"4a_demo_Thomas_didnt_see_Patrick","trial_type":"audio-button-response","trial_index":31,"time_elapsed":164086,"internal_node_id":"0.0-2.0-0.12"},{"rt":6360,"stimulus":"audio/2b_natural_Peter_wont_eat_ANYTHING.mp3","response":1,"test_part":"test","phrase":"2b_natural_Peter_wont_eat_ANYTHING","trial_type":"audio-button-response","trial_index":33,"time_elapsed":172056,"internal_node_id":"0.0-2.0-0.13"},{"rt":6168,"stimulus":"audio/Ea_natural_We_didnt_get_one_Christmas_card.mp3","response":0,"test_part":"test","phrase":"Ea_natural_We_didnt_get_one_Christmas_card","trial_type":"audio-button-response","trial_index":35,"time_elapsed":179935,"internal_node_id":"0.0-2.0-0.14"},{"rt":5520,"stimulus":"audio/Db_demo_Mary_doesnt_LIKE_ice_cream.mp3","response":0,"test_part":"test","phrase":"Db_demo_Mary_doesnt_LIKE_ice_cream","trial_type":"audio-button-response","trial_index":37,"time_elapsed":188597,"internal_node_id":"0.0-2.0-0.15"},{"rt":3080,"stimulus":"audio/Eb_natural_We_didnt_get_ONE_Christmas_card.mp3","response":0,"test_part":"test","phrase":"Eb_natural_We_didnt_get_ONE_Christmas_card","trial_type":"audio-button-response","trial_index":39,"time_elapsed":193606,"internal_node_id":"0.0-2.0-0.16"},{"rt":9117,"stimulus":"audio/4b_demo_Thomas_didnt_see_PATRICK.mp3","response":1,"test_part":"test","phrase":"4b_demo_Thomas_didnt_see_PATRICK","trial_type":"audio-button-response","trial_index":41,"time_elapsed":204096,"internal_node_id":"0.0-2.0-0.17"},{"rt":7029,"stimulus":"audio/5b_natural_the_food_didnt_taste_GOOD.mp3","response":2,"test_part":"test","phrase":"5b_natural_the_food_didnt_taste_GOOD","trial_type":"audio-button-response","trial_index":43,"time_elapsed":212805,"internal_node_id":"0.0-2.0-0.18"},{"rt":4019,"stimulus":"audio/5b_natural_the_food_didnt_taste_GOOD.mp3","response":0,"test_part":"test","phrase":"5b_natural_the_food_didnt_taste_GOOD","trial_type":"audio-button-response","trial_index":44,"time_elapsed":216826,"internal_node_id":"0.0-2.0-1.18-0.18"},{"rt":7749,"stimulus":"audio/9b_demo_Arthur_wasnt_TIPSY.mp3","response":0,"test_part":"test","phrase":"9b_demo_Arthur_wasnt_TIPSY","trial_type":"audio-button-response","trial_index":46,"time_elapsed":226285,"internal_node_id":"0.0-2.0-0.19"},{"rt":4451,"stimulus":"audio/1b_demo_the_inbox_wasnt_FULL.mp3","response":0,"test_part":"test","phrase":"1b_demo_the_inbox_wasnt_FULL","trial_type":"audio-button-response","trial_index":48,"time_elapsed":233806,"internal_node_id":"0.0-2.0-0.20"},{"rt":4608,"stimulus":"audio/9a_natural_Arthur_wasnt_tipsy.mp3","response":0,"test_part":"test","phrase":"9a_natural_Arthur_wasnt_tipsy","trial_type":"audio-button-response","trial_index":50,"time_elapsed":240740,"internal_node_id":"0.0-2.0-0.21"},{"rt":4499,"stimulus":"audio/Ab_natural_Ken_didnt_feed_the_CAT.mp3","response":1,"test_part":"test","phrase":"Ab_natural_Ken_didnt_feed_the_CAT","trial_type":"audio-button-response","trial_index":52,"time_elapsed":248615,"internal_node_id":"0.0-2.0-0.22"},{"rt":6280,"stimulus":"audio/3a_natural_Susan_didnt_get_one_credit.mp3","response":2,"test_part":"test","phrase":"3a_natural_Susan_didnt_get_one_credit","trial_type":"audio-button-response","trial_index":54,"time_elapsed":256437,"internal_node_id":"0.0-2.0-0.23"},{"rt":3131,"stimulus":"audio/3a_natural_Susan_didnt_get_one_credit.mp3","response":0,"test_part":"test","phrase":"3a_natural_Susan_didnt_get_one_credit","trial_type":"audio-button-response","trial_index":55,"time_elapsed":259566,"internal_node_id":"0.0-2.0-1.23-0.23"},{"rt":5512,"stimulus":"audio/5b_demo_the_food_didnt_taste_GOOD.mp3","response":0,"test_part":"test","phrase":"5b_demo_the_food_didnt_taste_GOOD","trial_type":"audio-button-response","trial_index":57,"time_elapsed":266649,"internal_node_id":"0.0-2.0-0.24"},{"rt":4371,"stimulus":"audio/4a_natural_Thomas_didnt_see_Patrick.mp3","response":0,"test_part":"test","phrase":"4a_natural_Thomas_didnt_see_Patrick","trial_type":"audio-button-response","trial_index":59,"time_elapsed":272870,"internal_node_id":"0.0-2.0-0.25"},{"rt":6280,"stimulus":"audio/2a_demo_Peter_wont_eat_anything.mp3","response":1,"test_part":"test","phrase":"2a_demo_Peter_wont_eat_anything","trial_type":"audio-button-response","trial_index":61,"time_elapsed":280737,"internal_node_id":"0.0-2.0-0.26"},{"rt":2928,"stimulus":"audio/9b_natural_Arthur_wasnt_TIPSY.mp3","response":0,"test_part":"test","phrase":"9b_natural_Arthur_wasnt_TIPSY","trial_type":"audio-button-response","trial_index":63,"time_elapsed":286216,"internal_node_id":"0.0-2.0-0.27"},{"rt":2440,"stimulus":"audio/2b_demo_Peter_wont_eat_ANYTHING.mp3","response":1,"test_part":"test","phrase":"2b_demo_Peter_wont_eat_ANYTHING","trial_type":"audio-button-response","trial_index":65,"time_elapsed":290276,"internal_node_id":"0.0-2.0-0.28"},{"rt":3691,"stimulus":"audio/Aa_demo_Ken_didnt_feed_the_cat.mp3","response":1,"test_part":"test","phrase":"Aa_demo_Ken_didnt_feed_the_cat","trial_type":"audio-button-response","trial_index":67,"time_elapsed":295485,"internal_node_id":"0.0-2.0-0.29"},{"rt":5029,"stimulus":"audio/5a_demo_the_food_didnt_taste_good.mp3","response":0,"test_part":"test","phrase":"5a_demo_the_food_didnt_taste_good","trial_type":"audio-button-response","trial_index":69,"time_elapsed":302437,"internal_node_id":"0.0-2.0-0.30"},{"rt":4800,"stimulus":"audio/4b_natural_Thomas_didnt_see_PATRICK.mp3","response":1,"test_part":"test","phrase":"4b_natural_Thomas_didnt_see_PATRICK","trial_type":"audio-button-response","trial_index":71,"time_elapsed":308732,"internal_node_id":"0.0-2.0-0.31"},{"rt":3229,"stimulus":"audio/Da_natural_Mary_doesnt_like_ice_cream.mp3","response":0,"test_part":"test","phrase":"Da_natural_Mary_doesnt_like_ice_cream","trial_type":"audio-button-response","trial_index":73,"time_elapsed":313657,"internal_node_id":"0.0-2.0-0.32"},{"rt":4101,"stimulus":"audio/3b_natural_Susan_didnt_get_ONE_credit.mp3","response":0,"test_part":"test","phrase":"3b_natural_Susan_didnt_get_ONE_credit","trial_type":"audio-button-response","trial_index":75,"time_elapsed":319166,"internal_node_id":"0.0-2.0-0.33"},{"rt":11691,"stimulus":"audio/Cb_demo_Nick_doesnt_listen_to_ANYONE.mp3","response":0,"test_part":"test","phrase":"Cb_demo_Nick_doesnt_listen_to_ANYONE","trial_type":"audio-button-response","trial_index":77,"time_elapsed":332476,"internal_node_id":"0.0-2.0-0.34"},{"rt":6968,"stimulus":"audio/3b_demo_Susan_didnt_get_ONE_credit.mp3","response":0,"test_part":"test","phrase":"3b_demo_Susan_didnt_get_ONE_credit","trial_type":"audio-button-response","trial_index":79,"time_elapsed":342461,"internal_node_id":"0.0-2.0-0.35"},{"rt":4208,"stimulus":"audio/5a_natural_the_food_didnt_taste_good.mp3","response":0,"test_part":"test","phrase":"5a_natural_the_food_didnt_taste_good","trial_type":"audio-button-response","trial_index":81,"time_elapsed":348216,"internal_node_id":"0.0-2.0-0.36"},{"rt":5091,"stimulus":"audio/3a_demo_Susan_didnt_get_one_credit.mp3","response":0,"test_part":"test","phrase":"3a_demo_Susan_didnt_get_one_credit","trial_type":"audio-button-response","trial_index":83,"time_elapsed":354711,"internal_node_id":"0.0-2.0-0.37"},{"rt":3440,"stimulus":"audio/Db_natural_Mary_doesnt_LIKE_ice_cream.mp3","response":1,"test_part":"test","phrase":"Db_natural_Mary_doesnt_LIKE_ice_cream","trial_type":"audio-button-response","trial_index":85,"time_elapsed":361016,"internal_node_id":"0.0-2.0-0.38"},{"rt":3400,"stimulus":"audio/1a_natural_the_inbox_wasnt_full.mp3","response":0,"test_part":"test","phrase":"1a_natural_the_inbox_wasnt_full","trial_type":"audio-button-response","trial_index":87,"time_elapsed":366137,"internal_node_id":"0.0-2.0-0.39"}]