[{"rt":8381,"stimulus":"audio/Eb_demo_We_didnt_get_ONE_Christmas_card.mp3","response":2,"test_part":"test","phrase":"Eb_demo_We_didnt_get_ONE_Christmas_card","trial_type":"audio-button-response","trial_index":2,"time_elapsed":17893,"internal_node_id":"0.0-2.0-0.0"},{"rt":8008,"stimulus":"audio/Eb_demo_We_didnt_get_ONE_Christmas_card.mp3","response":0,"test_part":"test","phrase":"Eb_demo_We_didnt_get_ONE_Christmas_card","trial_type":"audio-button-response","trial_index":3,"time_elapsed":25913,"internal_node_id":"0.0-2.0-1.0-0.0"},{"rt":6371,"stimulus":"audio/Cb_demo_Nick_doesnt_listen_to_ANYONE.mp3","response":2,"test_part":"test","phrase":"Cb_demo_Nick_doesnt_listen_to_ANYONE","trial_type":"audio-button-response","trial_index":5,"time_elapsed":35703,"internal_node_id":"0.0-2.0-0.1"},{"rt":11029,"stimulus":"audio/Cb_demo_Nick_doesnt_listen_to_ANYONE.mp3","response":0,"test_part":"test","phrase":"Cb_demo_Nick_doesnt_listen_to_ANYONE","trial_type":"audio-button-response","trial_index":6,"time_elapsed":46723,"internal_node_id":"0.0-2.0-1.1-0.1"},{"rt":7528,"stimulus":"audio/Db_demo_Mary_doesnt_LIKE_ice_cream.mp3","response":2,"test_part":"test","phrase":"Db_demo_Mary_doesnt_LIKE_ice_cream","trial_type":"audio-button-response","trial_index":8,"time_elapsed":56313,"internal_node_id":"0.0-2.0-0.2"},{"rt":11240,"stimulus":"audio/Db_demo_Mary_doesnt_LIKE_ice_cream.mp3","response":1,"test_part":"test","phrase":"Db_demo_Mary_doesnt_LIKE_ice_cream","trial_type":"audio-button-response","trial_index":9,"time_elapsed":67542,"internal_node_id":"0.0-2.0-1.2-0.2"},{"rt":11019,"stimulus":"audio/1b_demo_the_inbox_wasnt_FULL.mp3","response":1,"test_part":"test","phrase":"1b_demo_the_inbox_wasnt_FULL","trial_type":"audio-button-response","trial_index":11,"time_elapsed":80633,"internal_node_id":"0.0-2.0-0.3"},{"rt":5621,"stimulus":"audio/2a_demo_Peter_wont_eat_anything.mp3","response":2,"test_part":"test","phrase":"2a_demo_Peter_wont_eat_anything","trial_type":"audio-button-response","trial_index":13,"time_elapsed":87643,"internal_node_id":"0.0-2.0-0.4"},{"rt":7859,"stimulus":"audio/2a_demo_Peter_wont_eat_anything.mp3","response":0,"test_part":"test","phrase":"2a_demo_Peter_wont_eat_anything","trial_type":"audio-button-response","trial_index":14,"time_elapsed":95503,"internal_node_id":"0.0-2.0-1.4-0.4"},{"rt":8640,"stimulus":"audio/9a_demo_Arthur_wasnt_tipsy.mp3","response":2,"test_part":"test","phrase":"9a_demo_Arthur_wasnt_tipsy","trial_type":"audio-button-response","trial_index":16,"time_elapsed":106212,"internal_node_id":"0.0-2.0-0.5"},{"rt":10248,"stimulus":"audio/9a_demo_Arthur_wasnt_tipsy.mp3","response":1,"test_part":"test","phrase":"9a_demo_Arthur_wasnt_tipsy","trial_type":"audio-button-response","trial_index":17,"time_elapsed":116472,"internal_node_id":"0.0-2.0-1.5-0.5"},{"rt":8720,"stimulus":"audio/2a_natural_Peter_wont_eat_anything.mp3","response":0,"test_part":"test","phrase":"2a_natural_Peter_wont_eat_anything","trial_type":"audio-button-response","trial_index":19,"time_elapsed":126953,"internal_node_id":"0.0-2.0-0.6"},{"rt":20859,"stimulus":"audio/3a_demo_Susan_didnt_get_one_credit.mp3","response":2,"test_part":"test","phrase":"3a_demo_Susan_didnt_get_one_credit","trial_type":"audio-button-response","trial_index":21,"time_elapsed":149663,"internal_node_id":"0.0-2.0-0.7"},{"rt":12621,"stimulus":"audio/3a_demo_Susan_didnt_get_one_credit.mp3","response":0,"test_part":"test","phrase":"3a_demo_Susan_didnt_get_one_credit","trial_type":"audio-button-response","trial_index":22,"time_elapsed":162283,"internal_node_id":"0.0-2.0-1.7-0.7"},{"rt":6000,"stimulus":"audio/2b_demo_Peter_wont_eat_ANYTHING.mp3","response":2,"test_part":"test","phrase":"2b_demo_Peter_wont_eat_ANYTHING","trial_type":"audio-button-response","trial_index":24,"time_elapsed":169832,"internal_node_id":"0.0-2.0-0.8"},{"rt":1981,"stimulus":"audio/2b_demo_Peter_wont_eat_ANYTHING.mp3","response":1,"test_part":"test","phrase":"2b_demo_Peter_wont_eat_ANYTHING","trial_type":"audio-button-response","trial_index":25,"time_elapsed":171812,"internal_node_id":"0.0-2.0-1.8-0.8"},{"rt":4208,"stimulus":"audio/9b_natural_Arthur_wasnt_TIPSY.mp3","response":2,"test_part":"test","phrase":"9b_natural_Arthur_wasnt_TIPSY","trial_type":"audio-button-response","trial_index":27,"time_elapsed":177543,"internal_node_id":"0.0-2.0-0.9"},{"rt":8632,"stimulus":"audio/9b_natural_Arthur_wasnt_TIPSY.mp3","response":1,"test_part":"test","phrase":"9b_natural_Arthur_wasnt_TIPSY","trial_type":"audio-button-response","trial_index":28,"time_elapsed":186174,"internal_node_id":"0.0-2.0-1.9-0.9"},{"rt":6328,"stimulus":"audio/4a_demo_Thomas_didnt_see_Patrick.mp3","response":2,"test_part":"test","phrase":"4a_demo_Thomas_didnt_see_Patrick","trial_type":"audio-button-response","trial_index":30,"time_elapsed":193542,"internal_node_id":"0.0-2.0-0.10"},{"rt":4981,"stimulus":"audio/4a_demo_Thomas_didnt_see_Patrick.mp3","response":0,"test_part":"test","phrase":"4a_demo_Thomas_didnt_see_Patrick","trial_type":"audio-button-response","trial_index":31,"time_elapsed":198523,"internal_node_id":"0.0-2.0-1.10-0.10"},{"rt":3480,"stimulus":"audio/Da_natural_Mary_doesnt_like_ice_cream.mp3","response":0,"test_part":"test","phrase":"Da_natural_Mary_doesnt_like_ice_cream","trial_type":"audio-button-response","trial_index":33,"time_elapsed":203412,"internal_node_id":"0.0-2.0-0.11"},{"rt":4480,"stimulus":"audio/4b_natural_Thomas_didnt_see_PATRICK.mp3","response":0,"test_part":"test","phrase":"4b_natural_Thomas_didnt_see_PATRICK","trial_type":"audio-button-response","trial_index":35,"time_elapsed":210212,"internal_node_id":"0.0-2.0-0.12"},{"rt":7000,"stimulus":"audio/1b_natural_the_inbox_wasnt_FULL.mp3","response":2,"test_part":"test","phrase":"1b_natural_the_inbox_wasnt_FULL","trial_type":"audio-button-response","trial_index":37,"time_elapsed":218622,"internal_node_id":"0.0-2.0-0.13"},{"rt":4000,"stimulus":"audio/1b_natural_the_inbox_wasnt_FULL.mp3","response":1,"test_part":"test","phrase":"1b_natural_the_inbox_wasnt_FULL","trial_type":"audio-button-response","trial_index":38,"time_elapsed":222624,"internal_node_id":"0.0-2.0-1.13-0.13"},{"rt":3971,"stimulus":"audio/4b_demo_Thomas_didnt_see_PATRICK.mp3","response":0,"test_part":"test","phrase":"4b_demo_Thomas_didnt_see_PATRICK","trial_type":"audio-button-response","trial_index":40,"time_elapsed":228162,"internal_node_id":"0.0-2.0-0.14"},{"rt":9251,"stimulus":"audio/Ab_demo_Ken_didnt_feed_the_CAT.mp3","response":1,"test_part":"test","phrase":"Ab_demo_Ken_didnt_feed_the_CAT","trial_type":"audio-button-response","trial_index":42,"time_elapsed":238733,"internal_node_id":"0.0-2.0-0.15"},{"rt":7851,"stimulus":"audio/4a_natural_Thomas_didnt_see_Patrick.mp3","response":0,"test_part":"test","phrase":"4a_natural_Thomas_didnt_see_Patrick","trial_type":"audio-button-response","trial_index":44,"time_elapsed":248083,"internal_node_id":"0.0-2.0-0.16"},{"rt":4141,"stimulus":"audio/5a_demo_the_food_didnt_taste_good.mp3","response":2,"test_part":"test","phrase":"5a_demo_the_food_didnt_taste_good","trial_type":"audio-button-response","trial_index":46,"time_elapsed":253643,"internal_node_id":"0.0-2.0-0.17"},{"rt":2299,"stimulus":"audio/5a_demo_the_food_didnt_taste_good.mp3","response":0,"test_part":"test","phrase":"5a_demo_the_food_didnt_taste_good","trial_type":"audio-button-response","trial_index":47,"time_elapsed":255943,"internal_node_id":"0.0-2.0-1.17-0.17"},{"rt":2680,"stimulus":"audio/Da_demo_Mary_doesnt_like_ice_cream.mp3","response":0,"test_part":"test","phrase":"Da_demo_Mary_doesnt_like_ice_cream","trial_type":"audio-button-response","trial_index":49,"time_elapsed":260442,"internal_node_id":"0.0-2.0-0.18"},{"rt":6531,"stimulus":"audio/9b_demo_Arthur_wasnt_TIPSY.mp3","response":1,"test_part":"test","phrase":"9b_demo_Arthur_wasnt_TIPSY","trial_type":"audio-button-response","trial_index":51,"time_elapsed":267883,"internal_node_id":"0.0-2.0-0.19"},{"rt":5360,"stimulus":"audio/Ca_demo_Nick_doesnt_listen_to_anyone.mp3","response":0,"test_part":"test","phrase":"Ca_demo_Nick_doesnt_listen_to_anyone","trial_type":"audio-button-response","trial_index":53,"time_elapsed":274883,"internal_node_id":"0.0-2.0-0.20"},{"rt":2400,"stimulus":"audio/Aa_natural_Ken_didnt_feed_the_cat.mp3","response":0,"test_part":"test","phrase":"Aa_natural_Ken_didnt_feed_the_cat","trial_type":"audio-button-response","trial_index":55,"time_elapsed":278263,"internal_node_id":"0.0-2.0-0.21"},{"rt":3509,"stimulus":"audio/Cb_natural_Nick_doesnt_listen_to_ANYONE.mp3","response":1,"test_part":"test","phrase":"Cb_natural_Nick_doesnt_listen_to_ANYONE","trial_type":"audio-button-response","trial_index":57,"time_elapsed":282723,"internal_node_id":"0.0-2.0-0.22"},{"rt":3379,"stimulus":"audio/3b_demo_Susan_didnt_get_ONE_credit.mp3","response":1,"test_part":"test","phrase":"3b_demo_Susan_didnt_get_ONE_credit","trial_type":"audio-button-response","trial_index":59,"time_elapsed":286884,"internal_node_id":"0.0-2.0-0.23"},{"rt":3189,"stimulus":"audio/Ca_natural_Nick_doesnt_listen_to_anyone.mp3","response":0,"test_part":"test","phrase":"Ca_natural_Nick_doesnt_listen_to_anyone","trial_type":"audio-button-response","trial_index":61,"time_elapsed":291083,"internal_node_id":"0.0-2.0-0.24"},{"rt":2781,"stimulus":"audio/Ab_natural_Ken_didnt_feed_the_CAT.mp3","response":1,"test_part":"test","phrase":"Ab_natural_Ken_didnt_feed_the_CAT","trial_type":"audio-button-response","trial_index":63,"time_elapsed":294884,"internal_node_id":"0.0-2.0-0.25"},{"rt":3819,"stimulus":"audio/9a_natural_Arthur_wasnt_tipsy.mp3","response":0,"test_part":"test","phrase":"9a_natural_Arthur_wasnt_tipsy","trial_type":"audio-button-response","trial_index":65,"time_elapsed":299673,"internal_node_id":"0.0-2.0-0.26"},{"rt":4611,"stimulus":"audio/5b_demo_the_food_didnt_taste_GOOD.mp3","response":1,"test_part":"test","phrase":"5b_demo_the_food_didnt_taste_GOOD","trial_type":"audio-button-response","trial_index":67,"time_elapsed":306713,"internal_node_id":"0.0-2.0-0.27"},{"rt":2432,"stimulus":"audio/1a_natural_the_inbox_wasnt_full.mp3","response":0,"test_part":"test","phrase":"1a_natural_the_inbox_wasnt_full","trial_type":"audio-button-response","trial_index":69,"time_elapsed":310382,"internal_node_id":"0.0-2.0-0.28"},{"rt":2821,"stimulus":"audio/3a_natural_Susan_didnt_get_one_credit.mp3","response":0,"test_part":"test","phrase":"3a_natural_Susan_didnt_get_one_credit","trial_type":"audio-button-response","trial_index":71,"time_elapsed":314444,"internal_node_id":"0.0-2.0-0.29"},{"rt":6080,"stimulus":"audio/1a_demo_the_inbox_wasnt_full.mp3","response":2,"test_part":"test","phrase":"1a_demo_the_inbox_wasnt_full","trial_type":"audio-button-response","trial_index":73,"time_elapsed":321623,"internal_node_id":"0.0-2.0-0.30"},{"rt":2120,"stimulus":"audio/1a_demo_the_inbox_wasnt_full.mp3","response":0,"test_part":"test","phrase":"1a_demo_the_inbox_wasnt_full","trial_type":"audio-button-response","trial_index":74,"time_elapsed":323742,"internal_node_id":"0.0-2.0-1.30-0.30"},{"rt":4019,"stimulus":"audio/Db_natural_Mary_doesnt_LIKE_ice_cream.mp3","response":1,"test_part":"test","phrase":"Db_natural_Mary_doesnt_LIKE_ice_cream","trial_type":"audio-button-response","trial_index":76,"time_elapsed":333193,"internal_node_id":"0.0-2.0-0.31"},{"rt":2960,"stimulus":"audio/3b_natural_Susan_didnt_get_ONE_credit.mp3","response":1,"test_part":"test","phrase":"3b_natural_Susan_didnt_get_ONE_credit","trial_type":"audio-button-response","trial_index":78,"time_elapsed":338972,"internal_node_id":"0.0-2.0-0.32"},{"rt":3069,"stimulus":"audio/Eb_natural_We_didnt_get_ONE_Christmas_card.mp3","response":1,"test_part":"test","phrase":"Eb_natural_We_didnt_get_ONE_Christmas_card","trial_type":"audio-button-response","trial_index":80,"time_elapsed":343283,"internal_node_id":"0.0-2.0-0.33"},{"rt":2909,"stimulus":"audio/Aa_demo_Ken_didnt_feed_the_cat.mp3","response":0,"test_part":"test","phrase":"Aa_demo_Ken_didnt_feed_the_cat","trial_type":"audio-button-response","trial_index":82,"time_elapsed":347023,"internal_node_id":"0.0-2.0-0.34"},{"rt":2251,"stimulus":"audio/2b_natural_Peter_wont_eat_ANYTHING.mp3","response":0,"test_part":"test","phrase":"2b_natural_Peter_wont_eat_ANYTHING","trial_type":"audio-button-response","trial_index":84,"time_elapsed":349963,"internal_node_id":"0.0-2.0-0.35"},{"rt":3200,"stimulus":"audio/Ea_demo_We_didnt_get_one_Christmas_card.mp3","response":0,"test_part":"test","phrase":"Ea_demo_We_didnt_get_one_Christmas_card","trial_type":"audio-button-response","trial_index":86,"time_elapsed":354533,"internal_node_id":"0.0-2.0-0.36"},{"rt":19312,"stimulus":"audio/5a_natural_the_food_didnt_taste_good.mp3","response":2,"test_part":"test","phrase":"5a_natural_the_food_didnt_taste_good","trial_type":"audio-button-response","trial_index":88,"time_elapsed":374723,"internal_node_id":"0.0-2.0-0.37"},{"rt":2459,"stimulus":"audio/5a_natural_the_food_didnt_taste_good.mp3","response":0,"test_part":"test","phrase":"5a_natural_the_food_didnt_taste_good","trial_type":"audio-button-response","trial_index":89,"time_elapsed":377165,"internal_node_id":"0.0-2.0-1.37-0.37"},{"rt":3101,"stimulus":"audio/Ea_natural_We_didnt_get_one_Christmas_card.mp3","response":0,"test_part":"test","phrase":"Ea_natural_We_didnt_get_one_Christmas_card","trial_type":"audio-button-response","trial_index":91,"time_elapsed":381843,"internal_node_id":"0.0-2.0-0.38"},{"rt":2808,"stimulus":"audio/5b_natural_the_food_didnt_taste_GOOD.mp3","response":1,"test_part":"test","phrase":"5b_natural_the_food_didnt_taste_GOOD","trial_type":"audio-button-response","trial_index":93,"time_elapsed":385471,"internal_node_id":"0.0-2.0-0.39"}]