[{"rt":4411,"stimulus":"audio/9a_demo_Arthur_wasnt_tipsy.mp3","response":2,"test_part":"test","phrase":"9a_demo_Arthur_wasnt_tipsy","trial_type":"audio-button-response","trial_index":2,"time_elapsed":20423,"internal_node_id":"0.0-2.0-0.0"},{"rt":2520,"stimulus":"audio/9a_demo_Arthur_wasnt_tipsy.mp3","response":0,"test_part":"test","phrase":"9a_demo_Arthur_wasnt_tipsy","trial_type":"audio-button-response","trial_index":3,"time_elapsed":22942,"internal_node_id":"0.0-2.0-1.0-0.0"},{"rt":2848,"stimulus":"audio/1b_natural_the_inbox_wasnt_FULL.mp3","response":0,"test_part":"test","phrase":"1b_natural_the_inbox_wasnt_FULL","trial_type":"audio-button-response","trial_index":5,"time_elapsed":28325,"internal_node_id":"0.0-2.0-0.1"},{"rt":2731,"stimulus":"audio/Ca_demo_Nick_doesnt_listen_to_anyone.mp3","response":1,"test_part":"test","phrase":"Ca_demo_Nick_doesnt_listen_to_anyone","trial_type":"audio-button-response","trial_index":7,"time_elapsed":33799,"internal_node_id":"0.0-2.0-0.2"},{"rt":3480,"stimulus":"audio/Ab_demo_Ken_didnt_feed_the_CAT.mp3","response":0,"test_part":"test","phrase":"Ab_demo_Ken_didnt_feed_the_CAT","trial_type":"audio-button-response","trial_index":9,"time_elapsed":38792,"internal_node_id":"0.0-2.0-0.3"},{"rt":3541,"stimulus":"audio/Ea_natural_We_didnt_get_one_Christmas_card.mp3","response":2,"test_part":"test","phrase":"Ea_natural_We_didnt_get_one_Christmas_card","trial_type":"audio-button-response","trial_index":11,"time_elapsed":43788,"internal_node_id":"0.0-2.0-0.4"},{"rt":2971,"stimulus":"audio/Ea_natural_We_didnt_get_one_Christmas_card.mp3","response":1,"test_part":"test","phrase":"Ea_natural_We_didnt_get_one_Christmas_card","trial_type":"audio-button-response","trial_index":12,"time_elapsed":46761,"internal_node_id":"0.0-2.0-1.4-0.4"},{"rt":3869,"stimulus":"audio/Aa_natural_Ken_didnt_feed_the_cat.mp3","response":1,"test_part":"test","phrase":"Aa_natural_Ken_didnt_feed_the_cat","trial_type":"audio-button-response","trial_index":14,"time_elapsed":52466,"internal_node_id":"0.0-2.0-0.5"},{"rt":3629,"stimulus":"audio/3a_natural_Susan_didnt_get_one_credit.mp3","response":1,"test_part":"test","phrase":"3a_natural_Susan_didnt_get_one_credit","trial_type":"audio-button-response","trial_index":16,"time_elapsed":57848,"internal_node_id":"0.0-2.0-0.6"},{"rt":3429,"stimulus":"audio/5a_demo_the_food_didnt_taste_good.mp3","response":0,"test_part":"test","phrase":"5a_demo_the_food_didnt_taste_good","trial_type":"audio-button-response","trial_index":18,"time_elapsed":62668,"internal_node_id":"0.0-2.0-0.7"},{"rt":4960,"stimulus":"audio/Ea_demo_We_didnt_get_one_Christmas_card.mp3","response":1,"test_part":"test","phrase":"Ea_demo_We_didnt_get_one_Christmas_card","trial_type":"audio-button-response","trial_index":20,"time_elapsed":69206,"internal_node_id":"0.0-2.0-0.8"},{"rt":3891,"stimulus":"audio/4a_demo_Thomas_didnt_see_Patrick.mp3","response":0,"test_part":"test","phrase":"4a_demo_Thomas_didnt_see_Patrick","trial_type":"audio-button-response","trial_index":22,"time_elapsed":74547,"internal_node_id":"0.0-2.0-0.9"},{"rt":2880,"stimulus":"audio/9b_natural_Arthur_wasnt_TIPSY.mp3","response":1,"test_part":"test","phrase":"9b_natural_Arthur_wasnt_TIPSY","trial_type":"audio-button-response","trial_index":24,"time_elapsed":78884,"internal_node_id":"0.0-2.0-0.10"},{"rt":2429,"stimulus":"audio/4b_demo_Thomas_didnt_see_PATRICK.mp3","response":1,"test_part":"test","phrase":"4b_demo_Thomas_didnt_see_PATRICK","trial_type":"audio-button-response","trial_index":26,"time_elapsed":82607,"internal_node_id":"0.0-2.0-0.11"},{"rt":2512,"stimulus":"audio/Da_natural_Mary_doesnt_like_ice_cream.mp3","response":0,"test_part":"test","phrase":"Da_natural_Mary_doesnt_like_ice_cream","trial_type":"audio-button-response","trial_index":28,"time_elapsed":86442,"internal_node_id":"0.0-2.0-0.12"},{"rt":1571,"stimulus":"audio/Eb_demo_We_didnt_get_ONE_Christmas_card.mp3","response":0,"test_part":"test","phrase":"Eb_demo_We_didnt_get_ONE_Christmas_card","trial_type":"audio-button-response","trial_index":30,"time_elapsed":89385,"internal_node_id":"0.0-2.0-0.13"},{"rt":2499,"stimulus":"audio/Cb_demo_Nick_doesnt_listen_to_ANYONE.mp3","response":0,"test_part":"test","phrase":"Cb_demo_Nick_doesnt_listen_to_ANYONE","trial_type":"audio-button-response","trial_index":32,"time_elapsed":93101,"internal_node_id":"0.0-2.0-0.14"},{"rt":1571,"stimulus":"audio/4a_natural_Thomas_didnt_see_Patrick.mp3","response":0,"test_part":"test","phrase":"4a_natural_Thomas_didnt_see_Patrick","trial_type":"audio-button-response","trial_index":34,"time_elapsed":95940,"internal_node_id":"0.0-2.0-0.15"},{"rt":2309,"stimulus":"audio/Aa_demo_Ken_didnt_feed_the_cat.mp3","response":1,"test_part":"test","phrase":"Aa_demo_Ken_didnt_feed_the_cat","trial_type":"audio-button-response","trial_index":36,"time_elapsed":99304,"internal_node_id":"0.0-2.0-0.16"},{"rt":3600,"stimulus":"audio/2b_demo_Peter_wont_eat_ANYTHING.mp3","response":0,"test_part":"test","phrase":"2b_demo_Peter_wont_eat_ANYTHING","trial_type":"audio-button-response","trial_index":38,"time_elapsed":103821,"internal_node_id":"0.0-2.0-0.17"},{"rt":2168,"stimulus":"audio/5a_natural_the_food_didnt_taste_good.mp3","response":1,"test_part":"test","phrase":"5a_natural_the_food_didnt_taste_good","trial_type":"audio-button-response","trial_index":40,"time_elapsed":107132,"internal_node_id":"0.0-2.0-0.18"},{"rt":1608,"stimulus":"audio/2a_natural_Peter_wont_eat_anything.mp3","response":0,"test_part":"test","phrase":"2a_natural_Peter_wont_eat_anything","trial_type":"audio-button-response","trial_index":42,"time_elapsed":111348,"internal_node_id":"0.0-2.0-0.19"},{"rt":2019,"stimulus":"audio/Db_natural_Mary_doesnt_LIKE_ice_cream.mp3","response":1,"test_part":"test","phrase":"Db_natural_Mary_doesnt_LIKE_ice_cream","trial_type":"audio-button-response","trial_index":44,"time_elapsed":114730,"internal_node_id":"0.0-2.0-0.20"},{"rt":2408,"stimulus":"audio/2a_demo_Peter_wont_eat_anything.mp3","response":0,"test_part":"test","phrase":"2a_demo_Peter_wont_eat_anything","trial_type":"audio-button-response","trial_index":46,"time_elapsed":118371,"internal_node_id":"0.0-2.0-0.21"},{"rt":2200,"stimulus":"audio/3a_demo_Susan_didnt_get_one_credit.mp3","response":0,"test_part":"test","phrase":"3a_demo_Susan_didnt_get_one_credit","trial_type":"audio-button-response","trial_index":48,"time_elapsed":121682,"internal_node_id":"0.0-2.0-0.22"},{"rt":2160,"stimulus":"audio/5b_natural_the_food_didnt_taste_GOOD.mp3","response":0,"test_part":"test","phrase":"5b_natural_the_food_didnt_taste_GOOD","trial_type":"audio-button-response","trial_index":50,"time_elapsed":124963,"internal_node_id":"0.0-2.0-0.23"},{"rt":2909,"stimulus":"audio/Cb_natural_Nick_doesnt_listen_to_ANYONE.mp3","response":1,"test_part":"test","phrase":"Cb_natural_Nick_doesnt_listen_to_ANYONE","trial_type":"audio-button-response","trial_index":52,"time_elapsed":128824,"internal_node_id":"0.0-2.0-0.24"},{"rt":1531,"stimulus":"audio/5b_demo_the_food_didnt_taste_GOOD.mp3","response":0,"test_part":"test","phrase":"5b_demo_the_food_didnt_taste_GOOD","trial_type":"audio-button-response","trial_index":54,"time_elapsed":131377,"internal_node_id":"0.0-2.0-0.25"},{"rt":1659,"stimulus":"audio/9b_demo_Arthur_wasnt_TIPSY.mp3","response":0,"test_part":"test","phrase":"9b_demo_Arthur_wasnt_TIPSY","trial_type":"audio-button-response","trial_index":56,"time_elapsed":133967,"internal_node_id":"0.0-2.0-0.26"},{"rt":1219,"stimulus":"audio/Db_demo_Mary_doesnt_LIKE_ice_cream.mp3","response":0,"test_part":"test","phrase":"Db_demo_Mary_doesnt_LIKE_ice_cream","trial_type":"audio-button-response","trial_index":58,"time_elapsed":136444,"internal_node_id":"0.0-2.0-0.27"},{"rt":2352,"stimulus":"audio/1b_demo_the_inbox_wasnt_FULL.mp3","response":0,"test_part":"test","phrase":"1b_demo_the_inbox_wasnt_FULL","trial_type":"audio-button-response","trial_index":60,"time_elapsed":139754,"internal_node_id":"0.0-2.0-0.28"},{"rt":1160,"stimulus":"audio/Da_demo_Mary_doesnt_like_ice_cream.mp3","response":0,"test_part":"test","phrase":"Da_demo_Mary_doesnt_like_ice_cream","trial_type":"audio-button-response","trial_index":62,"time_elapsed":142062,"internal_node_id":"0.0-2.0-0.29"},{"rt":1331,"stimulus":"audio/3b_demo_Susan_didnt_get_ONE_credit.mp3","response":0,"test_part":"test","phrase":"3b_demo_Susan_didnt_get_ONE_credit","trial_type":"audio-button-response","trial_index":64,"time_elapsed":144497,"internal_node_id":"0.0-2.0-0.30"},{"rt":1349,"stimulus":"audio/Eb_natural_We_didnt_get_ONE_Christmas_card.mp3","response":0,"test_part":"test","phrase":"Eb_natural_We_didnt_get_ONE_Christmas_card","trial_type":"audio-button-response","trial_index":66,"time_elapsed":146505,"internal_node_id":"0.0-2.0-0.31"},{"rt":931,"stimulus":"audio/3b_natural_Susan_didnt_get_ONE_credit.mp3","response":0,"test_part":"test","phrase":"3b_natural_Susan_didnt_get_ONE_credit","trial_type":"audio-button-response","trial_index":68,"time_elapsed":148543,"internal_node_id":"0.0-2.0-0.32"},{"rt":6709,"stimulus":"audio/2b_natural_Peter_wont_eat_ANYTHING.mp3","response":0,"test_part":"test","phrase":"2b_natural_Peter_wont_eat_ANYTHING","trial_type":"audio-button-response","trial_index":70,"time_elapsed":156253,"internal_node_id":"0.0-2.0-0.33"},{"rt":2131,"stimulus":"audio/Ab_natural_Ken_didnt_feed_the_CAT.mp3","response":0,"test_part":"test","phrase":"Ab_natural_Ken_didnt_feed_the_CAT","trial_type":"audio-button-response","trial_index":72,"time_elapsed":159517,"internal_node_id":"0.0-2.0-0.34"},{"rt":1709,"stimulus":"audio/1a_demo_the_inbox_wasnt_full.mp3","response":1,"test_part":"test","phrase":"1a_demo_the_inbox_wasnt_full","trial_type":"audio-button-response","trial_index":74,"time_elapsed":162167,"internal_node_id":"0.0-2.0-0.35"},{"rt":1659,"stimulus":"audio/9a_natural_Arthur_wasnt_tipsy.mp3","response":1,"test_part":"test","phrase":"9a_natural_Arthur_wasnt_tipsy","trial_type":"audio-button-response","trial_index":76,"time_elapsed":165014,"internal_node_id":"0.0-2.0-0.36"},{"rt":1299,"stimulus":"audio/4b_natural_Thomas_didnt_see_PATRICK.mp3","response":0,"test_part":"test","phrase":"4b_natural_Thomas_didnt_see_PATRICK","trial_type":"audio-button-response","trial_index":78,"time_elapsed":167012,"internal_node_id":"0.0-2.0-0.37"},{"rt":1259,"stimulus":"audio/Ca_natural_Nick_doesnt_listen_to_anyone.mp3","response":0,"test_part":"test","phrase":"Ca_natural_Nick_doesnt_listen_to_anyone","trial_type":"audio-button-response","trial_index":80,"time_elapsed":168892,"internal_node_id":"0.0-2.0-0.38"},{"rt":869,"stimulus":"audio/1a_natural_the_inbox_wasnt_full.mp3","response":0,"test_part":"test","phrase":"1a_natural_the_inbox_wasnt_full","trial_type":"audio-button-response","trial_index":82,"time_elapsed":170305,"internal_node_id":"0.0-2.0-0.39"}]