[{"rt":7941,"stimulus":"audio/Eb_natural_We_didnt_get_ONE_Christmas_card.mp3","response":1,"test_part":"test","phrase":"Eb_natural_We_didnt_get_ONE_Christmas_card","trial_type":"audio-button-response","trial_index":2,"time_elapsed":21801,"internal_node_id":"0.0-2.0-0.0"},{"rt":7909,"stimulus":"audio/1a_natural_the_inbox_wasnt_full.mp3","response":2,"test_part":"test","phrase":"1a_natural_the_inbox_wasnt_full","trial_type":"audio-button-response","trial_index":4,"time_elapsed":36002,"internal_node_id":"0.0-2.0-0.1"},{"rt":9941,"stimulus":"audio/1a_natural_the_inbox_wasnt_full.mp3","response":0,"test_part":"test","phrase":"1a_natural_the_inbox_wasnt_full","trial_type":"audio-button-response","trial_index":5,"time_elapsed":45955,"internal_node_id":"0.0-2.0-1.1-0.1"},{"rt":5800,"stimulus":"audio/Eb_demo_We_didnt_get_ONE_Christmas_card.mp3","response":1,"test_part":"test","phrase":"Eb_demo_We_didnt_get_ONE_Christmas_card","trial_type":"audio-button-response","trial_index":7,"time_elapsed":53775,"internal_node_id":"0.0-2.0-0.2"},{"rt":3909,"stimulus":"audio/Db_natural_Mary_doesnt_LIKE_ice_cream.mp3","response":0,"test_part":"test","phrase":"Db_natural_Mary_doesnt_LIKE_ice_cream","trial_type":"audio-button-response","trial_index":9,"time_elapsed":59624,"internal_node_id":"0.0-2.0-0.3"},{"rt":6280,"stimulus":"audio/Ea_natural_We_didnt_get_one_Christmas_card.mp3","response":0,"test_part":"test","phrase":"Ea_natural_We_didnt_get_one_Christmas_card","trial_type":"audio-button-response","trial_index":11,"time_elapsed":73219,"internal_node_id":"0.0-2.0-0.4"},{"rt":6880,"stimulus":"audio/Aa_natural_Ken_didnt_feed_the_cat.mp3","response":0,"test_part":"test","phrase":"Aa_natural_Ken_didnt_feed_the_cat","trial_type":"audio-button-response","trial_index":13,"time_elapsed":81949,"internal_node_id":"0.0-2.0-0.5"},{"rt":8579,"stimulus":"audio/9a_demo_Arthur_wasnt_tipsy.mp3","response":0,"test_part":"test","phrase":"9a_demo_Arthur_wasnt_tipsy","trial_type":"audio-button-response","trial_index":15,"time_elapsed":91777,"internal_node_id":"0.0-2.0-0.6"},{"rt":2640,"stimulus":"audio/Ab_natural_Ken_didnt_feed_the_CAT.mp3","response":1,"test_part":"test","phrase":"Ab_natural_Ken_didnt_feed_the_CAT","trial_type":"audio-button-response","trial_index":17,"time_elapsed":95927,"internal_node_id":"0.0-2.0-0.7"},{"rt":5931,"stimulus":"audio/2b_demo_Peter_wont_eat_ANYTHING.mp3","response":0,"test_part":"test","phrase":"2b_demo_Peter_wont_eat_ANYTHING","trial_type":"audio-button-response","trial_index":19,"time_elapsed":134145,"internal_node_id":"0.0-2.0-0.8"},{"rt":7872,"stimulus":"audio/3a_natural_Susan_didnt_get_one_credit.mp3","response":0,"test_part":"test","phrase":"3a_natural_Susan_didnt_get_one_credit","trial_type":"audio-button-response","trial_index":21,"time_elapsed":143959,"internal_node_id":"0.0-2.0-0.9"},{"rt":6888,"stimulus":"audio/4b_demo_Thomas_didnt_see_PATRICK.mp3","response":1,"test_part":"test","phrase":"4b_demo_Thomas_didnt_see_PATRICK","trial_type":"audio-button-response","trial_index":23,"time_elapsed":153449,"internal_node_id":"0.0-2.0-0.10"},{"rt":5040,"stimulus":"audio/3b_natural_Susan_didnt_get_ONE_credit.mp3","response":1,"test_part":"test","phrase":"3b_natural_Susan_didnt_get_ONE_credit","trial_type":"audio-button-response","trial_index":25,"time_elapsed":161082,"internal_node_id":"0.0-2.0-0.11"},{"rt":4648,"stimulus":"audio/5b_demo_the_food_didnt_taste_GOOD.mp3","response":0,"test_part":"test","phrase":"5b_demo_the_food_didnt_taste_GOOD","trial_type":"audio-button-response","trial_index":27,"time_elapsed":167773,"internal_node_id":"0.0-2.0-0.12"},{"rt":6701,"stimulus":"audio/Ab_demo_Ken_didnt_feed_the_CAT.mp3","response":1,"test_part":"test","phrase":"Ab_demo_Ken_didnt_feed_the_CAT","trial_type":"audio-button-response","trial_index":29,"time_elapsed":176389,"internal_node_id":"0.0-2.0-0.13"},{"rt":4579,"stimulus":"audio/2b_natural_Peter_wont_eat_ANYTHING.mp3","response":0,"test_part":"test","phrase":"2b_natural_Peter_wont_eat_ANYTHING","trial_type":"audio-button-response","trial_index":31,"time_elapsed":187286,"internal_node_id":"0.0-2.0-0.14"},{"rt":6141,"stimulus":"audio/4a_natural_Thomas_didnt_see_Patrick.mp3","response":0,"test_part":"test","phrase":"4a_natural_Thomas_didnt_see_Patrick","trial_type":"audio-button-response","trial_index":33,"time_elapsed":201628,"internal_node_id":"0.0-2.0-0.15"},{"rt":1939,"stimulus":"audio/2a_demo_Peter_wont_eat_anything.mp3","response":1,"test_part":"test","phrase":"2a_demo_Peter_wont_eat_anything","trial_type":"audio-button-response","trial_index":35,"time_elapsed":204861,"internal_node_id":"0.0-2.0-0.16"},{"rt":3021,"stimulus":"audio/5a_natural_the_food_didnt_taste_good.mp3","response":0,"test_part":"test","phrase":"5a_natural_the_food_didnt_taste_good","trial_type":"audio-button-response","trial_index":37,"time_elapsed":210264,"internal_node_id":"0.0-2.0-0.17"},{"rt":8189,"stimulus":"audio/Cb_natural_Nick_doesnt_listen_to_ANYONE.mp3","response":0,"test_part":"test","phrase":"Cb_natural_Nick_doesnt_listen_to_ANYONE","trial_type":"audio-button-response","trial_index":39,"time_elapsed":220324,"internal_node_id":"0.0-2.0-0.18"},{"rt":5531,"stimulus":"audio/2a_natural_Peter_wont_eat_anything.mp3","response":0,"test_part":"test","phrase":"2a_natural_Peter_wont_eat_anything","trial_type":"audio-button-response","trial_index":41,"time_elapsed":227189,"internal_node_id":"0.0-2.0-0.19"},{"rt":2901,"stimulus":"audio/Ca_natural_Nick_doesnt_listen_to_anyone.mp3","response":1,"test_part":"test","phrase":"Ca_natural_Nick_doesnt_listen_to_anyone","trial_type":"audio-button-response","trial_index":43,"time_elapsed":237346,"internal_node_id":"0.0-2.0-0.20"},{"rt":5131,"stimulus":"audio/9b_natural_Arthur_wasnt_TIPSY.mp3","response":1,"test_part":"test","phrase":"9b_natural_Arthur_wasnt_TIPSY","trial_type":"audio-button-response","trial_index":45,"time_elapsed":257800,"internal_node_id":"0.0-2.0-0.21"},{"rt":3741,"stimulus":"audio/Cb_demo_Nick_doesnt_listen_to_ANYONE.mp3","response":0,"test_part":"test","phrase":"Cb_demo_Nick_doesnt_listen_to_ANYONE","trial_type":"audio-button-response","trial_index":47,"time_elapsed":267595,"internal_node_id":"0.0-2.0-0.22"},{"rt":2899,"stimulus":"audio/Aa_demo_Ken_didnt_feed_the_cat.mp3","response":0,"test_part":"test","phrase":"Aa_demo_Ken_didnt_feed_the_cat","trial_type":"audio-button-response","trial_index":49,"time_elapsed":271898,"internal_node_id":"0.0-2.0-0.23"},{"rt":3139,"stimulus":"audio/5b_natural_the_food_didnt_taste_GOOD.mp3","response":1,"test_part":"test","phrase":"5b_natural_the_food_didnt_taste_GOOD","trial_type":"audio-button-response","trial_index":51,"time_elapsed":276297,"internal_node_id":"0.0-2.0-0.24"},{"rt":3909,"stimulus":"audio/Da_natural_Mary_doesnt_like_ice_cream.mp3","response":1,"test_part":"test","phrase":"Da_natural_Mary_doesnt_like_ice_cream","trial_type":"audio-button-response","trial_index":53,"time_elapsed":282793,"internal_node_id":"0.0-2.0-0.25"},{"rt":5421,"stimulus":"audio/Ea_demo_We_didnt_get_one_Christmas_card.mp3","response":0,"test_part":"test","phrase":"Ea_demo_We_didnt_get_one_Christmas_card","trial_type":"audio-button-response","trial_index":55,"time_elapsed":290310,"internal_node_id":"0.0-2.0-0.26"},{"rt":4861,"stimulus":"audio/Da_demo_Mary_doesnt_like_ice_cream.mp3","response":0,"test_part":"test","phrase":"Da_demo_Mary_doesnt_like_ice_cream","trial_type":"audio-button-response","trial_index":57,"time_elapsed":296345,"internal_node_id":"0.0-2.0-0.27"},{"rt":4920,"stimulus":"audio/3a_demo_Susan_didnt_get_one_credit.mp3","response":0,"test_part":"test","phrase":"3a_demo_Susan_didnt_get_one_credit","trial_type":"audio-button-response","trial_index":59,"time_elapsed":302766,"internal_node_id":"0.0-2.0-0.28"},{"rt":7491,"stimulus":"audio/1b_natural_the_inbox_wasnt_FULL.mp3","response":1,"test_part":"test","phrase":"1b_natural_the_inbox_wasnt_FULL","trial_type":"audio-button-response","trial_index":61,"time_elapsed":311860,"internal_node_id":"0.0-2.0-0.29"},{"rt":3920,"stimulus":"audio/3b_demo_Susan_didnt_get_ONE_credit.mp3","response":1,"test_part":"test","phrase":"3b_demo_Susan_didnt_get_ONE_credit","trial_type":"audio-button-response","trial_index":63,"time_elapsed":320380,"internal_node_id":"0.0-2.0-0.30"},{"rt":2869,"stimulus":"audio/1a_demo_the_inbox_wasnt_full.mp3","response":0,"test_part":"test","phrase":"1a_demo_the_inbox_wasnt_full","trial_type":"audio-button-response","trial_index":65,"time_elapsed":324809,"internal_node_id":"0.0-2.0-0.31"},{"rt":1440,"stimulus":"audio/9a_natural_Arthur_wasnt_tipsy.mp3","response":0,"test_part":"test","phrase":"9a_natural_Arthur_wasnt_tipsy","trial_type":"audio-button-response","trial_index":67,"time_elapsed":327847,"internal_node_id":"0.0-2.0-0.32"},{"rt":3920,"stimulus":"audio/4b_natural_Thomas_didnt_see_PATRICK.mp3","response":1,"test_part":"test","phrase":"4b_natural_Thomas_didnt_see_PATRICK","trial_type":"audio-button-response","trial_index":69,"time_elapsed":332871,"internal_node_id":"0.0-2.0-0.33"},{"rt":2499,"stimulus":"audio/1b_demo_the_inbox_wasnt_FULL.mp3","response":1,"test_part":"test","phrase":"1b_demo_the_inbox_wasnt_FULL","trial_type":"audio-button-response","trial_index":71,"time_elapsed":336931,"internal_node_id":"0.0-2.0-0.34"},{"rt":2920,"stimulus":"audio/4a_demo_Thomas_didnt_see_Patrick.mp3","response":0,"test_part":"test","phrase":"4a_demo_Thomas_didnt_see_Patrick","trial_type":"audio-button-response","trial_index":73,"time_elapsed":340939,"internal_node_id":"0.0-2.0-0.35"},{"rt":3019,"stimulus":"audio/Ca_demo_Nick_doesnt_listen_to_anyone.mp3","response":0,"test_part":"test","phrase":"Ca_demo_Nick_doesnt_listen_to_anyone","trial_type":"audio-button-response","trial_index":75,"time_elapsed":345175,"internal_node_id":"0.0-2.0-0.36"},{"rt":4251,"stimulus":"audio/9b_demo_Arthur_wasnt_TIPSY.mp3","response":0,"test_part":"test","phrase":"9b_demo_Arthur_wasnt_TIPSY","trial_type":"audio-button-response","trial_index":77,"time_elapsed":350550,"internal_node_id":"0.0-2.0-0.37"},{"rt":3941,"stimulus":"audio/Db_demo_Mary_doesnt_LIKE_ice_cream.mp3","response":0,"test_part":"test","phrase":"Db_demo_Mary_doesnt_LIKE_ice_cream","trial_type":"audio-button-response","trial_index":79,"time_elapsed":355998,"internal_node_id":"0.0-2.0-0.38"},{"rt":1379,"stimulus":"audio/5a_demo_the_food_didnt_taste_good.mp3","response":1,"test_part":"test","phrase":"5a_demo_the_food_didnt_taste_good","trial_type":"audio-button-response","trial_index":81,"time_elapsed":360784,"internal_node_id":"0.0-2.0-0.39"}]