[{"rt":3499,"stimulus":"audio/5a_natural_the_food_didnt_taste_good.mp3","response":0,"test_part":"test","phrase":"5a_natural_the_food_didnt_taste_good","trial_type":"audio-button-response","trial_index":2,"time_elapsed":8655,"internal_node_id":"0.0-2.0-0.0"},{"rt":3200,"stimulus":"audio/Ab_demo_Ken_didnt_feed_the_CAT.mp3","response":0,"test_part":"test","phrase":"Ab_demo_Ken_didnt_feed_the_CAT","trial_type":"audio-button-response","trial_index":4,"time_elapsed":18406,"internal_node_id":"0.0-2.0-0.1"},{"rt":4080,"stimulus":"audio/5b_natural_the_food_didnt_taste_GOOD.mp3","response":0,"test_part":"test","phrase":"5b_natural_the_food_didnt_taste_GOOD","trial_type":"audio-button-response","trial_index":6,"time_elapsed":23799,"internal_node_id":"0.0-2.0-0.2"},{"rt":4709,"stimulus":"audio/1b_natural_the_inbox_wasnt_FULL.mp3","response":0,"test_part":"test","phrase":"1b_natural_the_inbox_wasnt_FULL","trial_type":"audio-button-response","trial_index":8,"time_elapsed":30060,"internal_node_id":"0.0-2.0-0.3"},{"rt":3928,"stimulus":"audio/Ca_demo_Nick_doesnt_listen_to_anyone.mp3","response":0,"test_part":"test","phrase":"Ca_demo_Nick_doesnt_listen_to_anyone","trial_type":"audio-button-response","trial_index":10,"time_elapsed":35093,"internal_node_id":"0.0-2.0-0.4"},{"rt":2371,"stimulus":"audio/9b_demo_Arthur_wasnt_TIPSY.mp3","response":0,"test_part":"test","phrase":"9b_demo_Arthur_wasnt_TIPSY","trial_type":"audio-button-response","trial_index":12,"time_elapsed":39041,"internal_node_id":"0.0-2.0-0.5"},{"rt":2099,"stimulus":"audio/Ca_natural_Nick_doesnt_listen_to_anyone.mp3","response":0,"test_part":"test","phrase":"Ca_natural_Nick_doesnt_listen_to_anyone","trial_type":"audio-button-response","trial_index":14,"time_elapsed":42085,"internal_node_id":"0.0-2.0-0.6"},{"rt":3200,"stimulus":"audio/3a_natural_Susan_didnt_get_one_credit.mp3","response":0,"test_part":"test","phrase":"3a_natural_Susan_didnt_get_one_credit","trial_type":"audio-button-response","trial_index":16,"time_elapsed":46529,"internal_node_id":"0.0-2.0-0.7"},{"rt":8728,"stimulus":"audio/Ea_natural_We_didnt_get_one_Christmas_card.mp3","response":1,"test_part":"test","phrase":"Ea_natural_We_didnt_get_one_Christmas_card","trial_type":"audio-button-response","trial_index":18,"time_elapsed":56286,"internal_node_id":"0.0-2.0-0.8"},{"rt":2920,"stimulus":"audio/9a_natural_Arthur_wasnt_tipsy.mp3","response":0,"test_part":"test","phrase":"9a_natural_Arthur_wasnt_tipsy","trial_type":"audio-button-response","trial_index":20,"time_elapsed":91837,"internal_node_id":"0.0-2.0-0.9"},{"rt":3120,"stimulus":"audio/3a_demo_Susan_didnt_get_one_credit.mp3","response":0,"test_part":"test","phrase":"3a_demo_Susan_didnt_get_one_credit","trial_type":"audio-button-response","trial_index":22,"time_elapsed":97212,"internal_node_id":"0.0-2.0-0.10"},{"rt":7168,"stimulus":"audio/4a_demo_Thomas_didnt_see_Patrick.mp3","response":0,"test_part":"test","phrase":"4a_demo_Thomas_didnt_see_Patrick","trial_type":"audio-button-response","trial_index":24,"time_elapsed":105567,"internal_node_id":"0.0-2.0-0.11"},{"rt":3059,"stimulus":"audio/Ea_demo_We_didnt_get_one_Christmas_card.mp3","response":0,"test_part":"test","phrase":"Ea_demo_We_didnt_get_one_Christmas_card","trial_type":"audio-button-response","trial_index":26,"time_elapsed":110294,"internal_node_id":"0.0-2.0-0.12"},{"rt":5229,"stimulus":"audio/3b_natural_Susan_didnt_get_ONE_credit.mp3","response":0,"test_part":"test","phrase":"3b_natural_Susan_didnt_get_ONE_credit","trial_type":"audio-button-response","trial_index":28,"time_elapsed":126940,"internal_node_id":"0.0-2.0-0.13"},{"rt":7331,"stimulus":"audio/Aa_natural_Ken_didnt_feed_the_cat.mp3","response":0,"test_part":"test","phrase":"Aa_natural_Ken_didnt_feed_the_cat","trial_type":"audio-button-response","trial_index":30,"time_elapsed":136500,"internal_node_id":"0.0-2.0-0.14"},{"rt":3379,"stimulus":"audio/2b_natural_Peter_wont_eat_ANYTHING.mp3","response":0,"test_part":"test","phrase":"2b_natural_Peter_wont_eat_ANYTHING","trial_type":"audio-button-response","trial_index":32,"time_elapsed":141223,"internal_node_id":"0.0-2.0-0.15"},{"rt":3539,"stimulus":"audio/Cb_demo_Nick_doesnt_listen_to_ANYONE.mp3","response":0,"test_part":"test","phrase":"Cb_demo_Nick_doesnt_listen_to_ANYONE","trial_type":"audio-button-response","trial_index":34,"time_elapsed":145846,"internal_node_id":"0.0-2.0-0.16"},{"rt":2541,"stimulus":"audio/2b_demo_Peter_wont_eat_ANYTHING.mp3","response":0,"test_part":"test","phrase":"2b_demo_Peter_wont_eat_ANYTHING","trial_type":"audio-button-response","trial_index":36,"time_elapsed":149237,"internal_node_id":"0.0-2.0-0.17"},{"rt":2309,"stimulus":"audio/Db_natural_Mary_doesnt_LIKE_ice_cream.mp3","response":0,"test_part":"test","phrase":"Db_natural_Mary_doesnt_LIKE_ice_cream","trial_type":"audio-button-response","trial_index":38,"time_elapsed":152407,"internal_node_id":"0.0-2.0-0.18"},{"rt":2341,"stimulus":"audio/4b_natural_Thomas_didnt_see_PATRICK.mp3","response":0,"test_part":"test","phrase":"4b_natural_Thomas_didnt_see_PATRICK","trial_type":"audio-button-response","trial_index":40,"time_elapsed":155677,"internal_node_id":"0.0-2.0-0.19"},{"rt":5019,"stimulus":"audio/5a_demo_the_food_didnt_taste_good.mp3","response":0,"test_part":"test","phrase":"5a_demo_the_food_didnt_taste_good","trial_type":"audio-button-response","trial_index":42,"time_elapsed":161574,"internal_node_id":"0.0-2.0-0.20"},{"rt":5469,"stimulus":"audio/3b_demo_Susan_didnt_get_ONE_credit.mp3","response":0,"test_part":"test","phrase":"3b_demo_Susan_didnt_get_ONE_credit","trial_type":"audio-button-response","trial_index":44,"time_elapsed":168810,"internal_node_id":"0.0-2.0-0.21"},{"rt":2800,"stimulus":"audio/Ab_natural_Ken_didnt_feed_the_CAT.mp3","response":0,"test_part":"test","phrase":"Ab_natural_Ken_didnt_feed_the_CAT","trial_type":"audio-button-response","trial_index":46,"time_elapsed":173148,"internal_node_id":"0.0-2.0-0.22"},{"rt":3021,"stimulus":"audio/2a_demo_Peter_wont_eat_anything.mp3","response":0,"test_part":"test","phrase":"2a_demo_Peter_wont_eat_anything","trial_type":"audio-button-response","trial_index":48,"time_elapsed":177071,"internal_node_id":"0.0-2.0-0.23"},{"rt":4920,"stimulus":"audio/1a_demo_the_inbox_wasnt_full.mp3","response":0,"test_part":"test","phrase":"1a_demo_the_inbox_wasnt_full","trial_type":"audio-button-response","trial_index":50,"time_elapsed":183350,"internal_node_id":"0.0-2.0-0.24"},{"rt":2611,"stimulus":"audio/Da_natural_Mary_doesnt_like_ice_cream.mp3","response":1,"test_part":"test","phrase":"Da_natural_Mary_doesnt_like_ice_cream","trial_type":"audio-button-response","trial_index":52,"time_elapsed":204822,"internal_node_id":"0.0-2.0-0.25"},{"rt":1912,"stimulus":"audio/1b_demo_the_inbox_wasnt_FULL.mp3","response":0,"test_part":"test","phrase":"1b_demo_the_inbox_wasnt_FULL","trial_type":"audio-button-response","trial_index":54,"time_elapsed":208476,"internal_node_id":"0.0-2.0-0.26"},{"rt":2131,"stimulus":"audio/2a_natural_Peter_wont_eat_anything.mp3","response":0,"test_part":"test","phrase":"2a_natural_Peter_wont_eat_anything","trial_type":"audio-button-response","trial_index":56,"time_elapsed":211508,"internal_node_id":"0.0-2.0-0.27"},{"rt":2232,"stimulus":"audio/Aa_demo_Ken_didnt_feed_the_cat.mp3","response":0,"test_part":"test","phrase":"Aa_demo_Ken_didnt_feed_the_cat","trial_type":"audio-button-response","trial_index":58,"time_elapsed":214596,"internal_node_id":"0.0-2.0-0.28"},{"rt":6192,"stimulus":"audio/5b_demo_the_food_didnt_taste_GOOD.mp3","response":1,"test_part":"test","phrase":"5b_demo_the_food_didnt_taste_GOOD","trial_type":"audio-button-response","trial_index":60,"time_elapsed":221878,"internal_node_id":"0.0-2.0-0.29"},{"rt":3109,"stimulus":"audio/Db_demo_Mary_doesnt_LIKE_ice_cream.mp3","response":0,"test_part":"test","phrase":"Db_demo_Mary_doesnt_LIKE_ice_cream","trial_type":"audio-button-response","trial_index":62,"time_elapsed":226542,"internal_node_id":"0.0-2.0-0.30"},{"rt":3989,"stimulus":"audio/9b_natural_Arthur_wasnt_TIPSY.mp3","response":0,"test_part":"test","phrase":"9b_natural_Arthur_wasnt_TIPSY","trial_type":"audio-button-response","trial_index":64,"time_elapsed":231492,"internal_node_id":"0.0-2.0-0.31"},{"rt":4392,"stimulus":"audio/4a_natural_Thomas_didnt_see_Patrick.mp3","response":0,"test_part":"test","phrase":"4a_natural_Thomas_didnt_see_Patrick","trial_type":"audio-button-response","trial_index":66,"time_elapsed":237475,"internal_node_id":"0.0-2.0-0.32"},{"rt":4171,"stimulus":"audio/Da_demo_Mary_doesnt_like_ice_cream.mp3","response":0,"test_part":"test","phrase":"Da_demo_Mary_doesnt_like_ice_cream","trial_type":"audio-button-response","trial_index":68,"time_elapsed":264597,"internal_node_id":"0.0-2.0-0.33"},{"rt":4008,"stimulus":"audio/Eb_natural_We_didnt_get_ONE_Christmas_card.mp3","response":1,"test_part":"test","phrase":"Eb_natural_We_didnt_get_ONE_Christmas_card","trial_type":"audio-button-response","trial_index":70,"time_elapsed":270051,"internal_node_id":"0.0-2.0-0.34"},{"rt":5539,"stimulus":"audio/4b_demo_Thomas_didnt_see_PATRICK.mp3","response":0,"test_part":"test","phrase":"4b_demo_Thomas_didnt_see_PATRICK","trial_type":"audio-button-response","trial_index":72,"time_elapsed":276542,"internal_node_id":"0.0-2.0-0.35"},{"rt":2888,"stimulus":"audio/Eb_demo_We_didnt_get_ONE_Christmas_card.mp3","response":1,"test_part":"test","phrase":"Eb_demo_We_didnt_get_ONE_Christmas_card","trial_type":"audio-button-response","trial_index":74,"time_elapsed":281325,"internal_node_id":"0.0-2.0-0.36"},{"rt":4120,"stimulus":"audio/1a_natural_the_inbox_wasnt_full.mp3","response":0,"test_part":"test","phrase":"1a_natural_the_inbox_wasnt_full","trial_type":"audio-button-response","trial_index":76,"time_elapsed":286352,"internal_node_id":"0.0-2.0-0.37"},{"rt":2760,"stimulus":"audio/Cb_natural_Nick_doesnt_listen_to_ANYONE.mp3","response":0,"test_part":"test","phrase":"Cb_natural_Nick_doesnt_listen_to_ANYONE","trial_type":"audio-button-response","trial_index":78,"time_elapsed":290932,"internal_node_id":"0.0-2.0-0.38"},{"rt":2800,"stimulus":"audio/9a_demo_Arthur_wasnt_tipsy.mp3","response":0,"test_part":"test","phrase":"9a_demo_Arthur_wasnt_tipsy","trial_type":"audio-button-response","trial_index":80,"time_elapsed":294645,"internal_node_id":"0.0-2.0-0.39"}]