[{"rt":5619,"stimulus":"audio/Da_demo_Mary_doesnt_like_ice_cream.mp3","response":0,"test_part":"test","phrase":"Da_demo_Mary_doesnt_like_ice_cream","trial_type":"audio-button-response","trial_index":2,"time_elapsed":18333,"internal_node_id":"0.0-2.0-0.0"},{"rt":7731,"stimulus":"audio/9b_demo_Arthur_wasnt_TIPSY.mp3","response":2,"test_part":"test","phrase":"9b_demo_Arthur_wasnt_TIPSY","trial_type":"audio-button-response","trial_index":4,"time_elapsed":29647,"internal_node_id":"0.0-2.0-0.1"},{"rt":21421,"stimulus":"audio/9b_demo_Arthur_wasnt_TIPSY.mp3","response":1,"test_part":"test","phrase":"9b_demo_Arthur_wasnt_TIPSY","trial_type":"audio-button-response","trial_index":5,"time_elapsed":51070,"internal_node_id":"0.0-2.0-1.1-0.1"},{"rt":16251,"stimulus":"audio/Cb_natural_Nick_doesnt_listen_to_ANYONE.mp3","response":0,"test_part":"test","phrase":"Cb_natural_Nick_doesnt_listen_to_ANYONE","trial_type":"audio-button-response","trial_index":7,"time_elapsed":70939,"internal_node_id":"0.0-2.0-0.2"},{"rt":3800,"stimulus":"audio/5a_demo_the_food_didnt_taste_good.mp3","response":0,"test_part":"test","phrase":"5a_demo_the_food_didnt_taste_good","trial_type":"audio-button-response","trial_index":9,"time_elapsed":82548,"internal_node_id":"0.0-2.0-0.3"},{"rt":9251,"stimulus":"audio/4b_demo_Thomas_didnt_see_PATRICK.mp3","response":1,"test_part":"test","phrase":"4b_demo_Thomas_didnt_see_PATRICK","trial_type":"audio-button-response","trial_index":11,"time_elapsed":93598,"internal_node_id":"0.0-2.0-0.4"},{"rt":10539,"stimulus":"audio/5a_natural_the_food_didnt_taste_good.mp3","response":0,"test_part":"test","phrase":"5a_natural_the_food_didnt_taste_good","trial_type":"audio-button-response","trial_index":13,"time_elapsed":107178,"internal_node_id":"0.0-2.0-0.5"},{"rt":11560,"stimulus":"audio/Cb_demo_Nick_doesnt_listen_to_ANYONE.mp3","response":0,"test_part":"test","phrase":"Cb_demo_Nick_doesnt_listen_to_ANYONE","trial_type":"audio-button-response","trial_index":15,"time_elapsed":122085,"internal_node_id":"0.0-2.0-0.6"},{"rt":6531,"stimulus":"audio/9a_natural_Arthur_wasnt_tipsy.mp3","response":0,"test_part":"test","phrase":"9a_natural_Arthur_wasnt_tipsy","trial_type":"audio-button-response","trial_index":17,"time_elapsed":132347,"internal_node_id":"0.0-2.0-0.7"},{"rt":5371,"stimulus":"audio/3a_demo_Susan_didnt_get_one_credit.mp3","response":0,"test_part":"test","phrase":"3a_demo_Susan_didnt_get_one_credit","trial_type":"audio-button-response","trial_index":19,"time_elapsed":142630,"internal_node_id":"0.0-2.0-0.8"},{"rt":3651,"stimulus":"audio/5b_natural_the_food_didnt_taste_GOOD.mp3","response":1,"test_part":"test","phrase":"5b_natural_the_food_didnt_taste_GOOD","trial_type":"audio-button-response","trial_index":21,"time_elapsed":148342,"internal_node_id":"0.0-2.0-0.9"},{"rt":11640,"stimulus":"audio/Ab_demo_Ken_didnt_feed_the_CAT.mp3","response":0,"test_part":"test","phrase":"Ab_demo_Ken_didnt_feed_the_CAT","trial_type":"audio-button-response","trial_index":23,"time_elapsed":163494,"internal_node_id":"0.0-2.0-0.10"},{"rt":5509,"stimulus":"audio/2b_natural_Peter_wont_eat_ANYTHING.mp3","response":1,"test_part":"test","phrase":"2b_natural_Peter_wont_eat_ANYTHING","trial_type":"audio-button-response","trial_index":25,"time_elapsed":171105,"internal_node_id":"0.0-2.0-0.11"},{"rt":3680,"stimulus":"audio/Ab_natural_Ken_didnt_feed_the_CAT.mp3","response":0,"test_part":"test","phrase":"Ab_natural_Ken_didnt_feed_the_CAT","trial_type":"audio-button-response","trial_index":27,"time_elapsed":176477,"internal_node_id":"0.0-2.0-0.12"},{"rt":9101,"stimulus":"audio/9a_demo_Arthur_wasnt_tipsy.mp3","response":1,"test_part":"test","phrase":"9a_demo_Arthur_wasnt_tipsy","trial_type":"audio-button-response","trial_index":29,"time_elapsed":187677,"internal_node_id":"0.0-2.0-0.13"},{"rt":5168,"stimulus":"audio/1b_natural_the_inbox_wasnt_FULL.mp3","response":0,"test_part":"test","phrase":"1b_natural_the_inbox_wasnt_FULL","trial_type":"audio-button-response","trial_index":31,"time_elapsed":199530,"internal_node_id":"0.0-2.0-0.14"},{"rt":6219,"stimulus":"audio/Ca_demo_Nick_doesnt_listen_to_anyone.mp3","response":1,"test_part":"test","phrase":"Ca_demo_Nick_doesnt_listen_to_anyone","trial_type":"audio-button-response","trial_index":33,"time_elapsed":211172,"internal_node_id":"0.0-2.0-0.15"},{"rt":4091,"stimulus":"audio/1a_natural_the_inbox_wasnt_full.mp3","response":0,"test_part":"test","phrase":"1a_natural_the_inbox_wasnt_full","trial_type":"audio-button-response","trial_index":35,"time_elapsed":219370,"internal_node_id":"0.0-2.0-0.16"},{"rt":5061,"stimulus":"audio/Ea_demo_We_didnt_get_one_Christmas_card.mp3","response":1,"test_part":"test","phrase":"Ea_demo_We_didnt_get_one_Christmas_card","trial_type":"audio-button-response","trial_index":37,"time_elapsed":227067,"internal_node_id":"0.0-2.0-0.17"},{"rt":6072,"stimulus":"audio/5b_demo_the_food_didnt_taste_GOOD.mp3","response":1,"test_part":"test","phrase":"5b_demo_the_food_didnt_taste_GOOD","trial_type":"audio-button-response","trial_index":39,"time_elapsed":236010,"internal_node_id":"0.0-2.0-0.18"},{"rt":6011,"stimulus":"audio/Aa_demo_Ken_didnt_feed_the_cat.mp3","response":1,"test_part":"test","phrase":"Aa_demo_Ken_didnt_feed_the_cat","trial_type":"audio-button-response","trial_index":41,"time_elapsed":243755,"internal_node_id":"0.0-2.0-0.19"},{"rt":5491,"stimulus":"audio/2a_demo_Peter_wont_eat_anything.mp3","response":0,"test_part":"test","phrase":"2a_demo_Peter_wont_eat_anything","trial_type":"audio-button-response","trial_index":43,"time_elapsed":254572,"internal_node_id":"0.0-2.0-0.20"},{"rt":4509,"stimulus":"audio/1b_demo_the_inbox_wasnt_FULL.mp3","response":1,"test_part":"test","phrase":"1b_demo_the_inbox_wasnt_FULL","trial_type":"audio-button-response","trial_index":45,"time_elapsed":262843,"internal_node_id":"0.0-2.0-0.21"},{"rt":5739,"stimulus":"audio/Db_natural_Mary_doesnt_LIKE_ice_cream.mp3","response":1,"test_part":"test","phrase":"Db_natural_Mary_doesnt_LIKE_ice_cream","trial_type":"audio-button-response","trial_index":47,"time_elapsed":270828,"internal_node_id":"0.0-2.0-0.22"},{"rt":5709,"stimulus":"audio/3b_demo_Susan_didnt_get_ONE_credit.mp3","response":1,"test_part":"test","phrase":"3b_demo_Susan_didnt_get_ONE_credit","trial_type":"audio-button-response","trial_index":49,"time_elapsed":279843,"internal_node_id":"0.0-2.0-0.23"},{"rt":3120,"stimulus":"audio/Da_natural_Mary_doesnt_like_ice_cream.mp3","response":0,"test_part":"test","phrase":"Da_natural_Mary_doesnt_like_ice_cream","trial_type":"audio-button-response","trial_index":51,"time_elapsed":284508,"internal_node_id":"0.0-2.0-0.24"},{"rt":3811,"stimulus":"audio/3b_natural_Susan_didnt_get_ONE_credit.mp3","response":0,"test_part":"test","phrase":"3b_natural_Susan_didnt_get_ONE_credit","trial_type":"audio-button-response","trial_index":53,"time_elapsed":289795,"internal_node_id":"0.0-2.0-0.25"},{"rt":8320,"stimulus":"audio/4a_demo_Thomas_didnt_see_Patrick.mp3","response":0,"test_part":"test","phrase":"4a_demo_Thomas_didnt_see_Patrick","trial_type":"audio-button-response","trial_index":55,"time_elapsed":299647,"internal_node_id":"0.0-2.0-0.26"},{"rt":3832,"stimulus":"audio/2b_demo_Peter_wont_eat_ANYTHING.mp3","response":1,"test_part":"test","phrase":"2b_demo_Peter_wont_eat_ANYTHING","trial_type":"audio-button-response","trial_index":57,"time_elapsed":305398,"internal_node_id":"0.0-2.0-0.27"},{"rt":4819,"stimulus":"audio/Eb_demo_We_didnt_get_ONE_Christmas_card.mp3","response":1,"test_part":"test","phrase":"Eb_demo_We_didnt_get_ONE_Christmas_card","trial_type":"audio-button-response","trial_index":59,"time_elapsed":311723,"internal_node_id":"0.0-2.0-0.28"},{"rt":5280,"stimulus":"audio/4a_natural_Thomas_didnt_see_Patrick.mp3","response":0,"test_part":"test","phrase":"4a_natural_Thomas_didnt_see_Patrick","trial_type":"audio-button-response","trial_index":61,"time_elapsed":320086,"internal_node_id":"0.0-2.0-0.29"},{"rt":2608,"stimulus":"audio/Eb_natural_We_didnt_get_ONE_Christmas_card.mp3","response":0,"test_part":"test","phrase":"Eb_natural_We_didnt_get_ONE_Christmas_card","trial_type":"audio-button-response","trial_index":63,"time_elapsed":324170,"internal_node_id":"0.0-2.0-0.30"},{"rt":3232,"stimulus":"audio/1a_demo_the_inbox_wasnt_full.mp3","response":1,"test_part":"test","phrase":"1a_demo_the_inbox_wasnt_full","trial_type":"audio-button-response","trial_index":65,"time_elapsed":329765,"internal_node_id":"0.0-2.0-0.31"},{"rt":5208,"stimulus":"audio/9b_natural_Arthur_wasnt_TIPSY.mp3","response":0,"test_part":"test","phrase":"9b_natural_Arthur_wasnt_TIPSY","trial_type":"audio-button-response","trial_index":67,"time_elapsed":336134,"internal_node_id":"0.0-2.0-0.32"},{"rt":5040,"stimulus":"audio/Ca_natural_Nick_doesnt_listen_to_anyone.mp3","response":0,"test_part":"test","phrase":"Ca_natural_Nick_doesnt_listen_to_anyone","trial_type":"audio-button-response","trial_index":69,"time_elapsed":342383,"internal_node_id":"0.0-2.0-0.33"},{"rt":4528,"stimulus":"audio/4b_natural_Thomas_didnt_see_PATRICK.mp3","response":0,"test_part":"test","phrase":"4b_natural_Thomas_didnt_see_PATRICK","trial_type":"audio-button-response","trial_index":71,"time_elapsed":348695,"internal_node_id":"0.0-2.0-0.34"},{"rt":3259,"stimulus":"audio/Db_demo_Mary_doesnt_LIKE_ice_cream.mp3","response":0,"test_part":"test","phrase":"Db_demo_Mary_doesnt_LIKE_ice_cream","trial_type":"audio-button-response","trial_index":73,"time_elapsed":353497,"internal_node_id":"0.0-2.0-0.35"},{"rt":3739,"stimulus":"audio/Aa_natural_Ken_didnt_feed_the_cat.mp3","response":0,"test_part":"test","phrase":"Aa_natural_Ken_didnt_feed_the_cat","trial_type":"audio-button-response","trial_index":75,"time_elapsed":358846,"internal_node_id":"0.0-2.0-0.36"},{"rt":3280,"stimulus":"audio/3a_natural_Susan_didnt_get_one_credit.mp3","response":0,"test_part":"test","phrase":"3a_natural_Susan_didnt_get_one_credit","trial_type":"audio-button-response","trial_index":77,"time_elapsed":363530,"internal_node_id":"0.0-2.0-0.37"},{"rt":7440,"stimulus":"audio/2a_natural_Peter_wont_eat_anything.mp3","response":0,"test_part":"test","phrase":"2a_natural_Peter_wont_eat_anything","trial_type":"audio-button-response","trial_index":79,"time_elapsed":372146,"internal_node_id":"0.0-2.0-0.38"},{"rt":5608,"stimulus":"audio/Ea_natural_We_didnt_get_one_Christmas_card.mp3","response":1,"test_part":"test","phrase":"Ea_natural_We_didnt_get_one_Christmas_card","trial_type":"audio-button-response","trial_index":81,"time_elapsed":378856,"internal_node_id":"0.0-2.0-0.39"}]