[{"rt":5952,"stimulus":"audio/1a_demo_the_inbox_wasnt_full.mp3","response":2,"test_part":"test","phrase":"1a_demo_the_inbox_wasnt_full","trial_type":"audio-button-response","trial_index":2,"time_elapsed":19101,"internal_node_id":"0.0-2.0-0.0"},{"rt":2808,"stimulus":"audio/1a_demo_the_inbox_wasnt_full.mp3","response":0,"test_part":"test","phrase":"1a_demo_the_inbox_wasnt_full","trial_type":"audio-button-response","trial_index":3,"time_elapsed":21919,"internal_node_id":"0.0-2.0-1.0-0.0"},{"rt":5659,"stimulus":"audio/4b_natural_Thomas_didnt_see_PATRICK.mp3","response":2,"test_part":"test","phrase":"4b_natural_Thomas_didnt_see_PATRICK","trial_type":"audio-button-response","trial_index":5,"time_elapsed":32714,"internal_node_id":"0.0-2.0-0.1"},{"rt":5400,"stimulus":"audio/4b_natural_Thomas_didnt_see_PATRICK.mp3","response":1,"test_part":"test","phrase":"4b_natural_Thomas_didnt_see_PATRICK","trial_type":"audio-button-response","trial_index":6,"time_elapsed":38116,"internal_node_id":"0.0-2.0-1.1-0.1"},{"rt":5509,"stimulus":"audio/9a_natural_Arthur_wasnt_tipsy.mp3","response":2,"test_part":"test","phrase":"9a_natural_Arthur_wasnt_tipsy","trial_type":"audio-button-response","trial_index":8,"time_elapsed":45435,"internal_node_id":"0.0-2.0-0.2"},{"rt":3781,"stimulus":"audio/9a_natural_Arthur_wasnt_tipsy.mp3","response":0,"test_part":"test","phrase":"9a_natural_Arthur_wasnt_tipsy","trial_type":"audio-button-response","trial_index":9,"time_elapsed":49219,"internal_node_id":"0.0-2.0-1.2-0.2"},{"rt":4040,"stimulus":"audio/Ca_natural_Nick_doesnt_listen_to_anyone.mp3","response":2,"test_part":"test","phrase":"Ca_natural_Nick_doesnt_listen_to_anyone","trial_type":"audio-button-response","trial_index":11,"time_elapsed":55443,"internal_node_id":"0.0-2.0-0.3"},{"rt":3509,"stimulus":"audio/Ca_natural_Nick_doesnt_listen_to_anyone.mp3","response":0,"test_part":"test","phrase":"Ca_natural_Nick_doesnt_listen_to_anyone","trial_type":"audio-button-response","trial_index":12,"time_elapsed":58955,"internal_node_id":"0.0-2.0-1.3-0.3"},{"rt":3861,"stimulus":"audio/Da_demo_Mary_doesnt_like_ice_cream.mp3","response":0,"test_part":"test","phrase":"Da_demo_Mary_doesnt_like_ice_cream","trial_type":"audio-button-response","trial_index":14,"time_elapsed":64818,"internal_node_id":"0.0-2.0-0.4"},{"rt":4491,"stimulus":"audio/Cb_natural_Nick_doesnt_listen_to_ANYONE.mp3","response":1,"test_part":"test","phrase":"Cb_natural_Nick_doesnt_listen_to_ANYONE","trial_type":"audio-button-response","trial_index":16,"time_elapsed":73816,"internal_node_id":"0.0-2.0-0.5"},{"rt":3509,"stimulus":"audio/2b_natural_Peter_wont_eat_ANYTHING.mp3","response":0,"test_part":"test","phrase":"2b_natural_Peter_wont_eat_ANYTHING","trial_type":"audio-button-response","trial_index":18,"time_elapsed":79238,"internal_node_id":"0.0-2.0-0.6"},{"rt":4029,"stimulus":"audio/3a_demo_Susan_didnt_get_one_credit.mp3","response":0,"test_part":"test","phrase":"3a_demo_Susan_didnt_get_one_credit","trial_type":"audio-button-response","trial_index":20,"time_elapsed":84556,"internal_node_id":"0.0-2.0-0.7"},{"rt":3899,"stimulus":"audio/1b_natural_the_inbox_wasnt_FULL.mp3","response":1,"test_part":"test","phrase":"1b_natural_the_inbox_wasnt_FULL","trial_type":"audio-button-response","trial_index":22,"time_elapsed":90683,"internal_node_id":"0.0-2.0-0.8"},{"rt":2811,"stimulus":"audio/9b_demo_Arthur_wasnt_TIPSY.mp3","response":1,"test_part":"test","phrase":"9b_demo_Arthur_wasnt_TIPSY","trial_type":"audio-button-response","trial_index":24,"time_elapsed":94343,"internal_node_id":"0.0-2.0-0.9"},{"rt":7459,"stimulus":"audio/Da_natural_Mary_doesnt_like_ice_cream.mp3","response":0,"test_part":"test","phrase":"Da_natural_Mary_doesnt_like_ice_cream","trial_type":"audio-button-response","trial_index":26,"time_elapsed":103391,"internal_node_id":"0.0-2.0-0.10"},{"rt":7171,"stimulus":"audio/9b_natural_Arthur_wasnt_TIPSY.mp3","response":1,"test_part":"test","phrase":"9b_natural_Arthur_wasnt_TIPSY","trial_type":"audio-button-response","trial_index":28,"time_elapsed":111651,"internal_node_id":"0.0-2.0-0.11"},{"rt":5280,"stimulus":"audio/5b_natural_the_food_didnt_taste_GOOD.mp3","response":2,"test_part":"test","phrase":"5b_natural_the_food_didnt_taste_GOOD","trial_type":"audio-button-response","trial_index":30,"time_elapsed":117638,"internal_node_id":"0.0-2.0-0.12"},{"rt":5240,"stimulus":"audio/5b_natural_the_food_didnt_taste_GOOD.mp3","response":1,"test_part":"test","phrase":"5b_natural_the_food_didnt_taste_GOOD","trial_type":"audio-button-response","trial_index":31,"time_elapsed":122883,"internal_node_id":"0.0-2.0-1.12-0.12"},{"rt":3219,"stimulus":"audio/3b_natural_Susan_didnt_get_ONE_credit.mp3","response":1,"test_part":"test","phrase":"3b_natural_Susan_didnt_get_ONE_credit","trial_type":"audio-button-response","trial_index":33,"time_elapsed":126875,"internal_node_id":"0.0-2.0-0.13"},{"rt":4299,"stimulus":"audio/2a_natural_Peter_wont_eat_anything.mp3","response":1,"test_part":"test","phrase":"2a_natural_Peter_wont_eat_anything","trial_type":"audio-button-response","trial_index":35,"time_elapsed":132755,"internal_node_id":"0.0-2.0-0.14"},{"rt":4200,"stimulus":"audio/4a_demo_Thomas_didnt_see_Patrick.mp3","response":1,"test_part":"test","phrase":"4a_demo_Thomas_didnt_see_Patrick","trial_type":"audio-button-response","trial_index":37,"time_elapsed":138115,"internal_node_id":"0.0-2.0-0.15"},{"rt":3280,"stimulus":"audio/Ea_natural_We_didnt_get_one_Christmas_card.mp3","response":1,"test_part":"test","phrase":"Ea_natural_We_didnt_get_one_Christmas_card","trial_type":"audio-button-response","trial_index":39,"time_elapsed":142670,"internal_node_id":"0.0-2.0-0.16"},{"rt":4091,"stimulus":"audio/4b_demo_Thomas_didnt_see_PATRICK.mp3","response":1,"test_part":"test","phrase":"4b_demo_Thomas_didnt_see_PATRICK","trial_type":"audio-button-response","trial_index":41,"time_elapsed":147524,"internal_node_id":"0.0-2.0-0.17"},{"rt":4320,"stimulus":"audio/Ea_demo_We_didnt_get_one_Christmas_card.mp3","response":1,"test_part":"test","phrase":"Ea_demo_We_didnt_get_one_Christmas_card","trial_type":"audio-button-response","trial_index":43,"time_elapsed":153024,"internal_node_id":"0.0-2.0-0.18"},{"rt":4269,"stimulus":"audio/1a_natural_the_inbox_wasnt_full.mp3","response":0,"test_part":"test","phrase":"1a_natural_the_inbox_wasnt_full","trial_type":"audio-button-response","trial_index":45,"time_elapsed":158764,"internal_node_id":"0.0-2.0-0.19"},{"rt":3528,"stimulus":"audio/Aa_natural_Ken_didnt_feed_the_cat.mp3","response":2,"test_part":"test","phrase":"Aa_natural_Ken_didnt_feed_the_cat","trial_type":"audio-button-response","trial_index":47,"time_elapsed":163792,"internal_node_id":"0.0-2.0-0.20"},{"rt":3960,"stimulus":"audio/Aa_natural_Ken_didnt_feed_the_cat.mp3","response":0,"test_part":"test","phrase":"Aa_natural_Ken_didnt_feed_the_cat","trial_type":"audio-button-response","trial_index":48,"time_elapsed":167754,"internal_node_id":"0.0-2.0-1.20-0.20"},{"rt":2869,"stimulus":"audio/Eb_demo_We_didnt_get_ONE_Christmas_card.mp3","response":0,"test_part":"test","phrase":"Eb_demo_We_didnt_get_ONE_Christmas_card","trial_type":"audio-button-response","trial_index":50,"time_elapsed":171554,"internal_node_id":"0.0-2.0-0.21"},{"rt":2619,"stimulus":"audio/Ca_demo_Nick_doesnt_listen_to_anyone.mp3","response":0,"test_part":"test","phrase":"Ca_demo_Nick_doesnt_listen_to_anyone","trial_type":"audio-button-response","trial_index":52,"time_elapsed":175487,"internal_node_id":"0.0-2.0-0.22"},{"rt":4280,"stimulus":"audio/5a_demo_the_food_didnt_taste_good.mp3","response":1,"test_part":"test","phrase":"5a_demo_the_food_didnt_taste_good","trial_type":"audio-button-response","trial_index":54,"time_elapsed":188125,"internal_node_id":"0.0-2.0-0.23"},{"rt":2400,"stimulus":"audio/9a_demo_Arthur_wasnt_tipsy.mp3","response":1,"test_part":"test","phrase":"9a_demo_Arthur_wasnt_tipsy","trial_type":"audio-button-response","trial_index":56,"time_elapsed":191550,"internal_node_id":"0.0-2.0-0.24"},{"rt":2861,"stimulus":"audio/5a_natural_the_food_didnt_taste_good.mp3","response":0,"test_part":"test","phrase":"5a_natural_the_food_didnt_taste_good","trial_type":"audio-button-response","trial_index":58,"time_elapsed":195214,"internal_node_id":"0.0-2.0-0.25"},{"rt":2219,"stimulus":"audio/2a_demo_Peter_wont_eat_anything.mp3","response":0,"test_part":"test","phrase":"2a_demo_Peter_wont_eat_anything","trial_type":"audio-button-response","trial_index":60,"time_elapsed":198330,"internal_node_id":"0.0-2.0-0.26"},{"rt":2619,"stimulus":"audio/3a_natural_Susan_didnt_get_one_credit.mp3","response":0,"test_part":"test","phrase":"3a_natural_Susan_didnt_get_one_credit","trial_type":"audio-button-response","trial_index":62,"time_elapsed":201771,"internal_node_id":"0.0-2.0-0.27"},{"rt":3339,"stimulus":"audio/2b_demo_Peter_wont_eat_ANYTHING.mp3","response":1,"test_part":"test","phrase":"2b_demo_Peter_wont_eat_ANYTHING","trial_type":"audio-button-response","trial_index":64,"time_elapsed":205840,"internal_node_id":"0.0-2.0-0.28"},{"rt":2701,"stimulus":"audio/Cb_demo_Nick_doesnt_listen_to_ANYONE.mp3","response":1,"test_part":"test","phrase":"Cb_demo_Nick_doesnt_listen_to_ANYONE","trial_type":"audio-button-response","trial_index":66,"time_elapsed":209457,"internal_node_id":"0.0-2.0-0.29"},{"rt":2781,"stimulus":"audio/Db_demo_Mary_doesnt_LIKE_ice_cream.mp3","response":1,"test_part":"test","phrase":"Db_demo_Mary_doesnt_LIKE_ice_cream","trial_type":"audio-button-response","trial_index":68,"time_elapsed":213174,"internal_node_id":"0.0-2.0-0.30"},{"rt":3779,"stimulus":"audio/3b_demo_Susan_didnt_get_ONE_credit.mp3","response":1,"test_part":"test","phrase":"3b_demo_Susan_didnt_get_ONE_credit","trial_type":"audio-button-response","trial_index":70,"time_elapsed":217610,"internal_node_id":"0.0-2.0-0.31"},{"rt":3019,"stimulus":"audio/Db_natural_Mary_doesnt_LIKE_ice_cream.mp3","response":0,"test_part":"test","phrase":"Db_natural_Mary_doesnt_LIKE_ice_cream","trial_type":"audio-button-response","trial_index":72,"time_elapsed":221449,"internal_node_id":"0.0-2.0-0.32"},{"rt":3949,"stimulus":"audio/Ab_natural_Ken_didnt_feed_the_CAT.mp3","response":2,"test_part":"test","phrase":"Ab_natural_Ken_didnt_feed_the_CAT","trial_type":"audio-button-response","trial_index":74,"time_elapsed":226074,"internal_node_id":"0.0-2.0-0.33"},{"rt":5512,"stimulus":"audio/Ab_natural_Ken_didnt_feed_the_CAT.mp3","response":1,"test_part":"test","phrase":"Ab_natural_Ken_didnt_feed_the_CAT","trial_type":"audio-button-response","trial_index":75,"time_elapsed":231584,"internal_node_id":"0.0-2.0-1.33-0.33"},{"rt":3621,"stimulus":"audio/4a_natural_Thomas_didnt_see_Patrick.mp3","response":1,"test_part":"test","phrase":"4a_natural_Thomas_didnt_see_Patrick","trial_type":"audio-button-response","trial_index":77,"time_elapsed":235986,"internal_node_id":"0.0-2.0-0.34"},{"rt":2011,"stimulus":"audio/Eb_natural_We_didnt_get_ONE_Christmas_card.mp3","response":0,"test_part":"test","phrase":"Eb_natural_We_didnt_get_ONE_Christmas_card","trial_type":"audio-button-response","trial_index":79,"time_elapsed":239088,"internal_node_id":"0.0-2.0-0.35"},{"rt":3160,"stimulus":"audio/Aa_demo_Ken_didnt_feed_the_cat.mp3","response":1,"test_part":"test","phrase":"Aa_demo_Ken_didnt_feed_the_cat","trial_type":"audio-button-response","trial_index":81,"time_elapsed":242884,"internal_node_id":"0.0-2.0-0.36"},{"rt":3888,"stimulus":"audio/5b_demo_the_food_didnt_taste_GOOD.mp3","response":1,"test_part":"test","phrase":"5b_demo_the_food_didnt_taste_GOOD","trial_type":"audio-button-response","trial_index":83,"time_elapsed":247353,"internal_node_id":"0.0-2.0-0.37"},{"rt":2931,"stimulus":"audio/1b_demo_the_inbox_wasnt_FULL.mp3","response":1,"test_part":"test","phrase":"1b_demo_the_inbox_wasnt_FULL","trial_type":"audio-button-response","trial_index":85,"time_elapsed":251257,"internal_node_id":"0.0-2.0-0.38"},{"rt":2549,"stimulus":"audio/Ab_demo_Ken_didnt_feed_the_CAT.mp3","response":1,"test_part":"test","phrase":"Ab_demo_Ken_didnt_feed_the_CAT","trial_type":"audio-button-response","trial_index":87,"time_elapsed":254732,"internal_node_id":"0.0-2.0-0.39"}]